time,seconds_elapsed,z,y,x
1701815075888181000,0.016180908203125,-0.95391845703125,-0.0303802490234375,-0.0079803466796875
1701815075898133000,0.026133056640625,-1.0353240966796875,-0.046173095703125,0.07757568359375
1701815075908085800,0.036085693359375,-1.029205322265625,-0.0127105712890625,0.066925048828125
1701815075918038000,0.0460380859375,-0.98553466796875,-0.03094482421875,0.138275146484375
1701815075927991000,0.055990966796875,-1.0102081298828125,-0.0501556396484375,0.13226318359375
1701815075937943000,0.065943115234375,-1.0522918701171875,-0.0579071044921875,0.0799102783203125
1701815075947896000,0.07589599609375,-1.084228515625,-0.0657806396484375,0.0730133056640625
1701815075957847800,0.085847900390625,-1.10162353515625,-0.0707550048828125,0.0753936767578125
1701815075967800800,0.09580078125,-1.1047515869140625,-0.0682220458984375,0.1092987060546875
1701815075977752800,0.1057529296875,-1.097259521484375,-0.04803466796875,0.1473846435546875
1701815075987705900,0.115705810546875,-1.11859130859375,-0.0407257080078125,0.111358642578125
1701815075997658000,0.125658203125,-1.13702392578125,-0.0238189697265625,0.1100006103515625
1701815076007611100,0.135611083984375,-1.130279541015625,-0.0400848388671875,0.102783203125
1701815076017563000,0.14556298828125,-1.1037750244140625,-0.0592193603515625,0.0852508544921875
1701815076027516000,0.155515869140625,-1.0599517822265625,-0.0413970947265625,0.1332855224609375
1701815076037468000,0.165468017578125,-1.0822906494140625,-0.02532958984375,0.1724853515625
1701815076047421000,0.1754208984375,-1.0255889892578125,-0.0447998046875,0.1448516845703125
1701815076057373000,0.185373046875,-0.963409423828125,-0.0272369384765625,0.08154296875
1701815076067326000,0.195325927734375,-0.9406890869140625,-0.0602264404296875,0.099090576171875
1701815076077278000,0.20527783203125,-0.8734283447265625,-0.123321533203125,0.1077423095703125
1701815076087231000,0.21523095703125,-0.71636962890625,-0.1891021728515625,-0.039794921875
1701815076097183000,0.225182861328125,-0.78155517578125,-0.2259979248046875,0.1418304443359375
1701815076107136000,0.235135986328125,-0.915008544921875,-0.20648193359375,0.14312744140625
1701815076117087700,0.245087646484375,-0.9565887451171875,-0.1769866943359375,0.162200927734375
1701815076127040800,0.255040771484375,-0.9966888427734375,-0.191131591796875,0.0784759521484375
1701815076136993800,0.264993896484375,-0.97735595703125,-0.206451416015625,0.0523681640625
1701815076146946000,0.274946044921875,-0.9525604248046875,-0.138580322265625,0.1258544921875
1701815076156899000,0.284899169921875,-0.9571685791015625,-0.1165313720703125,0.1467437744140625
1701815076166850800,0.294850830078125,-0.96624755859375,-0.14007568359375,0.111541748046875
1701815076176803800,0.304803955078125,-0.998016357421875,-0.1268768310546875,0.0809173583984375
1701815076186755800,0.314755859375,-1.04327392578125,-0.1041717529296875,0.07476806640625
1701815076196708900,0.324708984375,-1.0696868896484375,-0.1057281494140625,0.0737457275390625
1701815076206660900,0.334660888671875,-1.0744476318359375,-0.1408233642578125,0.071441650390625
1701815076216614000,0.34461376953125,-1.0716400146484375,-0.1439666748046875,0.037109375
1701815076226566000,0.35456591796875,-1.082550048828125,-0.1240386962890625,0.0119171142578125
1701815076236519000,0.364518798828125,-1.0991058349609375,-0.1060943603515625,-0.041595458984375
1701815076246471000,0.374470947265625,-1.117706298828125,-0.0724639892578125,-0.0223541259765625
1701815076256424000,0.384423828125,-1.1520233154296875,-0.0686492919921875,0.02886962890625
1701815076266376000,0.3943759765625,-1.1590576171875,-0.0887451171875,-0.0232391357421875
1701815076276329000,0.404328857421875,-1.1566162109375,-0.0635986328125,-0.0983123779296875
1701815076286281000,0.414281005859375,-1.1439361572265625,0.0003814697265625,-0.1728515625
1701815076296234000,0.42423388671875,-1.104736328125,0.027008056640625,-0.2792510986328125
1701815076306186000,0.43418603515625,-1.094268798828125,0.034637451171875,-0.3443603515625
1701815076316139000,0.444138916015625,-1.084930419921875,0.0266876220703125,-0.315521240234375
1701815076326090800,0.4540908203125,-1.142364501953125,-0.034759521484375,-0.185089111328125
1701815076336043800,0.464043701171875,-1.23162841796875,-0.091583251953125,-0.093170166015625
1701815076345996800,0.473996826171875,-1.26666259765625,-0.0827484130859375,-0.026275634765625
1701815076355948800,0.48394873046875,-1.2170562744140625,-0.052337646484375,0.0030670166015625
1701815076365901800,0.49390185546875,-1.123504638671875,-0.016448974609375,-0.056610107421875
1701815076375854000,0.50385400390625,-1.0543365478515625,0.045928955078125,-0.088409423828125
1701815076385807000,0.51380712890625,-0.984527587890625,0.09320068359375,-0.117279052734375
1701815076395758800,0.5237587890625,-0.9313201904296875,0.097625732421875,-0.1400299072265625
1701815076405712000,0.5337119140625,-0.927978515625,0.08062744140625,-0.1820068359375
1701815076415663900,0.543663818359375,-0.9515838623046875,0.0547332763671875,-0.17559814453125
1701815076425617000,0.553616943359375,-0.93743896484375,0.0325927734375,-0.18072509765625
1701815076435569000,0.56356884765625,-0.936676025390625,0.021728515625,-0.1830596923828125
1701815076445522000,0.57352197265625,-0.996673583984375,0.0233917236328125,-0.064300537109375
1701815076455474000,0.583473876953125,-1.0234527587890625,0.013336181640625,-0.0063018798828125
1701815076465427000,0.593427001953125,-1.068634033203125,0.0145416259765625,-0.0908355712890625
1701815076475379000,0.60337890625,-1.0577239990234375,0.04541015625,-0.131256103515625
1701815076485332000,0.61333203125,-0.9709014892578125,0.036834716796875,-0.1873931884765625
1701815076495284000,0.623283935546875,-0.898345947265625,0.0152130126953125,-0.2427825927734375
1701815076505237000,0.633237060546875,-0.8331451416015625,0.016082763671875,-0.309722900390625
1701815076515189800,0.643189697265625,-0.8359832763671875,0.0164794921875,-0.2928924560546875
1701815076525142000,0.65314208984375,-0.8462982177734375,0.0343475341796875,-0.260345458984375
1701815076535095000,0.663094970703125,-0.9200592041015625,0.0807647705078125,-0.24530029296875
1701815076545046800,0.673046875,-1.0718841552734375,0.105377197265625,-0.0968780517578125
1701815076554999800,0.682999755859375,-1.1114044189453125,0.0967254638671875,-0.0060272216796875
1701815076564951800,0.692951904296875,-1.099945068359375,0.102874755859375,-0.0268096923828125
1701815076574904800,0.70290478515625,-1.092681884765625,0.1266021728515625,-0.1170501708984375
1701815076584857000,0.712857177734375,-1.0676116943359375,0.1541748046875,-0.264190673828125
1701815076594810000,0.72281005859375,-1.0372467041015625,0.17913818359375,-0.361175537109375
1701815076604761900,0.732761962890625,-1.0179290771484375,0.152252197265625,-0.4620361328125
1701815076614715000,0.74271484375,-0.9712982177734375,0.133056640625,-0.4990692138671875
1701815076624667000,0.7526669921875,-0.97283935546875,0.1583709716796875,-0.5081329345703125
1701815076634620000,0.762619873046875,-1.0225830078125,0.172393798828125,-0.4842681884765625
1701815076644572000,0.772572021484375,-1.0777740478515625,0.151824951171875,-0.374298095703125
1701815076654525000,0.78252490234375,-1.213165283203125,0.132598876953125,-0.2770233154296875
1701815076664478000,0.79247802734375,-1.214019775390625,0.1739654541015625,-0.28594970703125
1701815076674430000,0.802429931640625,-1.14093017578125,0.20916748046875,-0.326141357421875
1701815076684383000,0.812383056640625,-1.094085693359375,0.22760009765625,-0.3961029052734375
1701815076694335000,0.8223349609375,-1.00750732421875,0.2652130126953125,-0.3849639892578125
1701815076704288000,0.8322880859375,-0.9818267822265625,0.2616729736328125,-0.3586578369140625
1701815076714239000,0.842239013671875,-1.00628662109375,0.251708984375,-0.3875732421875
1701815076724192000,0.85219189453125,-1.045166015625,0.265655517578125,-0.405242919921875
1701815076734144000,0.86214404296875,-1.0634918212890625,0.2858123779296875,-0.404876708984375
1701815076744097000,0.872096923828125,-1.0458526611328125,0.27197265625,-0.3585357666015625
1701815076754049000,0.882049072265625,-1.0227508544921875,0.2385711669921875,-0.16064453125
1701815076764001800,0.892001708984375,-1.0437774658203125,0.23248291015625,0.0185699462890625
1701815076773953800,0.901953857421875,-0.9944305419921875,0.188873291015625,0.082977294921875
1701815076783906800,0.91190673828125,-0.8863983154296875,0.1373748779296875,0.020965576171875
1701815076793859000,0.921859130859375,-0.8560638427734375,0.1594696044921875,-0.0413665771484375
1701815076803812000,0.93181201171875,-0.8418426513671875,0.2466583251953125,-0.0352935791015625
1701815076813765000,0.94176513671875,-0.8218231201171875,0.2815704345703125,-0.0566864013671875
1701815076823716900,0.951716796875,-0.831573486328125,0.258392333984375,-0.085113525390625
1701815076833670000,0.961669921875,-0.7901763916015625,0.2177734375,-0.10919189453125
1701815076843622000,0.971621826171875,-0.7336578369140625,0.1673126220703125,-0.1197052001953125
1701815076853575000,0.981574951171875,-0.78216552734375,0.12518310546875,-0.0426788330078125
1701815076863527200,0.991527099609375,-0.853515625,0.1170501708984375,0.081573486328125
1701815076873480200,1.001480224609375,-0.90374755859375,0.1486968994140625,0.2533721923828125
1701815076883432000,1.011431884765625,-0.9367523193359375,0.1708984375,0.3329620361328125
1701815076893385000,1.021385009765625,-0.9431915283203125,0.17236328125,0.2799072265625
1701815076903337000,1.0313369140625,-0.940185546875,0.1794891357421875,0.2496185302734375
1701815076913290000,1.0412900390625,-0.903076171875,0.1749114990234375,0.206756591796875
1701815076923241700,1.05124169921875,-0.831756591796875,0.1640777587890625,0.0791473388671875
1701815076933194800,1.06119482421875,-0.7844085693359375,0.171234130859375,0.0168609619140625
1701815076943147000,1.07114697265625,-0.7550506591796875,0.1638336181640625,0.0021820068359375
1701815076953100000,1.08110009765625,-0.7588653564453125,0.132537841796875,0.0008087158203125
1701815076963052000,1.091052001953125,-0.7563934326171875,0.090728759765625,0.061370849609375
1701815076973005000,1.101005126953125,-0.7426300048828125,0.0598297119140625,0.170135498046875
1701815076982958000,1.1109580078125,-0.7699432373046875,0.05108642578125,0.17779541015625
1701815076992909800,1.120909912109375,-0.807861328125,0.0652618408203125,0.160736083984375
1701815077002862800,1.13086279296875,-0.79449462890625,0.0621337890625,0.1497955322265625
1701815077012815000,1.140815185546875,-0.7690582275390625,0.04986572265625,0.1053619384765625
1701815077022768000,1.15076806640625,-0.753265380859375,0.0132598876953125,0.0196990966796875
1701815077032720000,1.160719970703125,-0.80224609375,-0.00970458984375,-0.018218994140625
1701815077042673000,1.1706728515625,-0.9788360595703125,-0.0570831298828125,0.074920654296875
1701815077052625000,1.180625,-0.96630859375,-0.0036773681640625,0.13238525390625
1701815077062578000,1.190577880859375,-0.8961181640625,-0.0049591064453125,0.1755523681640625
1701815077072530000,1.200530029296875,-0.9638519287109375,-0.0899200439453125,0.187591552734375
1701815077082483000,1.21048291015625,-0.9643096923828125,-0.099700927734375,0.085113525390625
1701815077092435000,1.22043505859375,-0.9193267822265625,-0.06591796875,0.0654449462890625
1701815077102388000,1.230387939453125,-0.90283203125,-0.050811767578125,0.0593109130859375
1701815077112340000,1.240340087890625,-0.9088592529296875,-0.066314697265625,0.0789947509765625
1701815077122293000,1.25029296875,-0.9044036865234375,-0.1255950927734375,0.104644775390625
1701815077132246000,1.26024609375,-0.8805084228515625,-0.1668243408203125,0.1392974853515625
1701815077142197800,1.27019775390625,-0.8720550537109375,-0.185516357421875,0.126617431640625
1701815077152150800,1.28015087890625,-0.89349365234375,-0.18414306640625,0.059051513671875
1701815077162103000,1.29010302734375,-0.9390411376953125,-0.1494598388671875,-0.0044708251953125
1701815077172056000,1.30005615234375,-0.938201904296875,-0.13128662109375,-0.0691680908203125
1701815077182008000,1.310008056640625,-0.9235687255859375,-0.1338043212890625,-0.1258697509765625
1701815077191961000,1.319961181640625,-0.95501708984375,-0.12469482421875,-0.1366424560546875
1701815077201912800,1.329912841796875,-0.9951171875,-0.0775299072265625,-0.0917816162109375
1701815077211865900,1.339865966796875,-1.0500640869140625,-0.028900146484375,0.01617431640625
1701815077221817900,1.34981787109375,-0.993804931640625,0.0281829833984375,0.1259918212890625
1701815077231771000,1.35977099609375,-1.1031341552734375,-0.02166748046875,0.108642578125
1701815077241723100,1.36972314453125,-1.202880859375,-0.0805206298828125,-0.0045166015625
1701815077251676000,1.379676025390625,-1.1257781982421875,0.0079193115234375,-0.0272369384765625
1701815077261628000,1.3896279296875,-1.040252685546875,0.008453369140625,-0.0342254638671875
1701815077271581000,1.399580810546875,-1.0265960693359375,-0.062347412109375,-0.0396575927734375
1701815077281533000,1.409532958984375,-0.9976348876953125,-0.0564727783203125,0.02459716796875
1701815077291486000,1.41948583984375,-0.958648681640625,-0.063720703125,0.0914459228515625
1701815077301439000,1.42943896484375,-0.9918212890625,-0.0947418212890625,0.1237945556640625
1701815077311391000,1.439390869140625,-1.0443878173828125,-0.09405517578125,0.154754638671875
1701815077321344000,1.449343994140625,-1.097991943359375,-0.0615692138671875,0.1857452392578125
1701815077331296000,1.4592958984375,-1.1296234130859375,-0.0579681396484375,0.18310546875
1701815077341249000,1.4692490234375,-1.096954345703125,-0.0769805908203125,0.1402740478515625
1701815077351201000,1.479200927734375,-1.0400543212890625,-0.0860595703125,0.1230010986328125
1701815077361154000,1.489154052734375,-0.9945068359375,-0.0897674560546875,0.12725830078125
1701815077371105800,1.499105712890625,-0.947662353515625,-0.1079559326171875,0.11346435546875
1701815077381058800,1.509058837890625,-0.9239044189453125,-0.1252593994140625,0.1107635498046875
1701815077391011000,1.519010986328125,-0.914093017578125,-0.1469879150390625,0.1234130859375
1701815077400964000,1.528964111328125,-0.89569091796875,-0.1581573486328125,0.13311767578125
1701815077410915800,1.538915771484375,-0.88720703125,-0.1651611328125,0.1157989501953125
1701815077420868900,1.548868896484375,-0.9053955078125,-0.161285400390625,0.1056671142578125
1701815077430820900,1.55882080078125,-0.919189453125,-0.1582794189453125,0.110382080078125
1701815077440774000,1.56877392578125,-0.9384613037109375,-0.1612701416015625,0.1221466064453125
1701815077450726100,1.57872607421875,-0.966339111328125,-0.14794921875,0.150848388671875
1701815077460679200,1.58867919921875,-0.9834136962890625,-0.121429443359375,0.189971923828125
1701815077470632200,1.598632080078125,-0.979522705078125,-0.1160736083984375,0.1975555419921875
1701815077480584000,1.608583984375,-0.9732513427734375,-0.12884521484375,0.178863525390625
1701815077490537000,1.618536865234375,-0.98260498046875,-0.1335906982421875,0.17706298828125
1701815077500489000,1.628489013671875,-0.9846038818359375,-0.1376953125,0.1764068603515625
1701815077510442000,1.63844189453125,-0.9688262939453125,-0.139373779296875,0.16448974609375
1701815077520393700,1.648393798828125,-0.955413818359375,-0.13250732421875,0.15966796875
1701815077530346800,1.6583466796875,-0.961273193359375,-0.1195831298828125,0.15087890625
1701815077540299000,1.668299072265625,-0.9725189208984375,-0.1127777099609375,0.1412506103515625
1701815077550252000,1.678251953125,-0.96954345703125,-0.115020751953125,0.1331939697265625
1701815077560204000,1.6882041015625,-0.941162109375,-0.10296630859375,0.154144287109375
1701815077570157000,1.698156982421875,-0.932891845703125,-0.0998382568359375,0.20843505859375
1701815077580108800,1.70810888671875,-0.955657958984375,-0.1191864013671875,0.2279205322265625
1701815077590061800,1.718061767578125,-0.977783203125,-0.1200714111328125,0.2175750732421875
1701815077600014000,1.72801416015625,-1.00311279296875,-0.1299591064453125,0.1794586181640625
1701815077609967000,1.737967041015625,-1.0158233642578125,-0.1268310546875,0.14886474609375
1701815077619919000,1.747919189453125,-1.0294647216796875,-0.1304779052734375,0.1319122314453125
1701815077629871900,1.757871826171875,-1.032928466796875,-0.1455535888671875,0.1318359375
1701815077639824000,1.767823974609375,-1.014678955078125,-0.143035888671875,0.14971923828125
1701815077649777000,1.77777685546875,-0.996612548828125,-0.131134033203125,0.177490234375
1701815077659730000,1.78772998046875,-1.0023345947265625,-0.1320648193359375,0.1983184814453125
1701815077669682000,1.797681884765625,-1.0165252685546875,-0.1363372802734375,0.204010009765625
1701815077679635000,1.807635009765625,-1.0255279541015625,-0.128326416015625,0.1987762451171875
1701815077689587000,1.8175869140625,-1.029693603515625,-0.11602783203125,0.1869049072265625
1701815077699540000,1.8275400390625,-1.0299224853515625,-0.118194580078125,0.18798828125
1701815077709492000,1.837491943359375,-1.0160064697265625,-0.1204833984375,0.203521728515625
1701815077719445000,1.847445068359375,-0.9985504150390625,-0.111846923828125,0.22174072265625
1701815077729396700,1.857396728515625,-0.9819183349609375,-0.1152496337890625,0.234619140625
1701815077739349800,1.867349853515625,-0.968231201171875,-0.1298065185546875,0.24322509765625
1701815077749302000,1.877302001953125,-0.9528656005859375,-0.12506103515625,0.256927490234375
1701815077759255000,1.887255126953125,-0.9520111083984375,-0.1206512451171875,0.270294189453125
1701815077769207000,1.89720703125,-0.9598388671875,-0.133758544921875,0.266937255859375
1701815077779160000,1.90716015625,-0.959136962890625,-0.1461334228515625,0.256591796875
1701815077789111800,1.91711181640625,-0.972412109375,-0.1557464599609375,0.2411651611328125
1701815077799064800,1.92706494140625,-0.9957427978515625,-0.16790771484375,0.200775146484375
1701815077809016800,1.937016845703125,-1.01153564453125,-0.16107177734375,0.1511688232421875
1701815077818969900,1.946969970703125,-1.0149383544921875,-0.15020751953125,0.110595703125
1701815077828923000,1.9569228515625,-1.011566162109375,-0.1429443359375,0.091888427734375
1701815077838875000,1.966875,-0.9962158203125,-0.1451873779296875,0.089508056640625
1701815077848828000,1.976827880859375,-0.9753875732421875,-0.1470184326171875,0.093902587890625
1701815077858780000,1.98677978515625,-0.964508056640625,-0.1500244140625,0.109283447265625
1701815077868733000,1.99673291015625,-0.970947265625,-0.14239501953125,0.129486083984375
1701815077878685000,2.006684814453125,-0.9949951171875,-0.1371307373046875,0.13116455078125
1701815077888638000,2.016637939453125,-1.050567626953125,-0.1596832275390625,0.1074676513671875
1701815077898590000,2.02658984375,-1.0887603759765625,-0.18218994140625,0.0635986328125
1701815077908543000,2.03654296875,-1.091064453125,-0.1784820556640625,0.014068603515625
1701815077918495000,2.046494873046875,-1.07672119140625,-0.1638641357421875,-0.0270538330078125
1701815077928448000,2.056447998046875,-1.0590972900390625,-0.1523284912109375,-0.059051513671875
1701815077938400000,2.06639990234375,-1.02801513671875,-0.1516876220703125,-0.0558929443359375
1701815077948352800,2.076352783203125,-0.987945556640625,-0.1553802490234375,-0.0297698974609375
1701815077958304800,2.0863046875,-0.9625244140625,-0.168304443359375,0.008514404296875
1701815077968257800,2.0962578125,-0.934417724609375,-0.2002410888671875,0.0445556640625
1701815077978210000,2.1062099609375,-0.9022674560546875,-0.226287841796875,0.0662384033203125
1701815077988163000,2.1161630859375,-0.8925323486328125,-0.2377166748046875,0.079315185546875
1701815077998116000,2.1261162109375,-0.8994903564453125,-0.25,0.10235595703125
1701815078008067800,2.13606787109375,-0.89410400390625,-0.2646942138671875,0.11968994140625
1701815078018020900,2.146020751953125,-0.8917694091796875,-0.2727508544921875,0.1165313720703125
1701815078027972900,2.155972900390625,-0.894500732421875,-0.27410888671875,0.11309814453125
1701815078037926000,2.16592578125,-0.88861083984375,-0.2763214111328125,0.1059722900390625
1701815078047878100,2.175878173828125,-0.87664794921875,-0.27685546875,0.10247802734375
1701815078057831000,2.185830810546875,-0.883270263671875,-0.2830810546875,0.104339599609375
1701815078067783000,2.195782958984375,-0.886260986328125,-0.2912445068359375,0.1069793701171875
1701815078077736000,2.20573583984375,-0.8715057373046875,-0.3084259033203125,0.0933380126953125
1701815078087688000,2.21568798828125,-0.8902740478515625,-0.3105926513671875,0.09771728515625
1701815078097641000,2.225640869140625,-0.9569244384765625,-0.34307861328125,0.1228790283203125
1701815078107592700,2.2355927734375,-0.9937286376953125,-0.3466033935546875,0.1901397705078125
1701815078117545700,2.245545654296875,-0.997955322265625,-0.3043212890625,0.2545928955078125
1701815078127498000,2.255498046875,-1.0002288818359375,-0.298980712890625,0.2848968505859375
1701815078137451000,2.265450927734375,-0.9915618896484375,-0.321441650390625,0.278533935546875
1701815078147404000,2.275404052734375,-0.9542388916015625,-0.315643310546875,0.2569580078125
1701815078157356000,2.28535595703125,-0.918548583984375,-0.3033599853515625,0.24859619140625
1701815078167308800,2.295308837890625,-0.889495849609375,-0.323516845703125,0.251708984375
1701815078177260800,2.3052607421875,-0.8579864501953125,-0.3422088623046875,0.2444305419921875
1701815078187213800,2.3152138671875,-0.842132568359375,-0.350372314453125,0.23150634765625
1701815078197166000,2.325166015625,-0.8292694091796875,-0.36346435546875,0.2198944091796875
1701815078207119000,2.335119140625,-0.8020172119140625,-0.370697021484375,0.2066650390625
1701815078217070800,2.34507080078125,-0.7806396484375,-0.3764495849609375,0.1892242431640625
1701815078227024000,2.35502392578125,-0.7957916259765625,-0.3964691162109375,0.1679229736328125
1701815078236975900,2.364975830078125,-0.81640625,-0.392852783203125,0.197662353515625
1701815078246929000,2.374928955078125,-0.836090087890625,-0.372100830078125,0.2276611328125
1701815078256881000,2.384880859375,-0.85211181640625,-0.3438568115234375,0.2579803466796875
1701815078266834000,2.394833984375,-0.872039794921875,-0.32891845703125,0.2806243896484375
1701815078276786000,2.404785888671875,-0.8987579345703125,-0.313934326171875,0.290130615234375
1701815078286739000,2.414739013671875,-1.0108795166015625,-0.2596282958984375,0.299468994140625
1701815078296692000,2.42469189453125,-1.1041107177734375,-0.259765625,0.2891387939453125
1701815078306644000,2.43464404296875,-1.08221435546875,-0.306793212890625,0.2584228515625
1701815078316597000,2.444596923828125,-1.0730438232421875,-0.2838134765625,0.264892578125
1701815078326548700,2.454548828125,-0.9981842041015625,-0.3009490966796875,0.2386016845703125
1701815078336501800,2.464501708984375,-0.9328765869140625,-0.3102569580078125,0.210601806640625
1701815078346454000,2.4744541015625,-0.8940582275390625,-0.3157806396484375,0.192169189453125
1701815078356407000,2.484406982421875,-0.88946533203125,-0.32110595703125,0.18414306640625
1701815078366359000,2.494359130859375,-0.9127044677734375,-0.323944091796875,0.191802978515625
1701815078376312000,2.50431201171875,-0.90911865234375,-0.33721923828125,0.19757080078125
1701815078386263800,2.514263916015625,-0.8905487060546875,-0.3436279296875,0.20733642578125
1701815078396216800,2.524216796875,-0.8721923828125,-0.3333892822265625,0.2177581787109375
1701815078406168800,2.5341689453125,-0.862548828125,-0.311004638671875,0.2257843017578125
1701815078416121900,2.544121826171875,-0.8688507080078125,-0.3007354736328125,0.2305145263671875
1701815078426075000,2.554074951171875,-0.8787689208984375,-0.3021240234375,0.226654052734375
1701815078436027000,2.56402685546875,-0.8895416259765625,-0.28759765625,0.2330780029296875
1701815078445980000,2.57397998046875,-0.8929443359375,-0.2772064208984375,0.2362518310546875
1701815078455932000,2.583931884765625,-0.8809356689453125,-0.2743377685546875,0.2457733154296875
1701815078465885000,2.593885009765625,-0.8715972900390625,-0.293060302734375,0.21337890625
1701815078475837000,2.6038369140625,-0.8712005615234375,-0.308380126953125,0.164276123046875
1701815078485790000,2.6137900390625,-0.880218505859375,-0.34527587890625,0.1019134521484375
1701815078495742000,2.623741943359375,-0.889312744140625,-0.4059295654296875,0.0305938720703125
1701815078505695000,2.633695068359375,-0.8923492431640625,-0.453155517578125,-0.018829345703125
1701815078515647000,2.64364697265625,-0.9142608642578125,-0.4769744873046875,-0.027191162109375
1701815078525600000,2.65360009765625,-0.89544677734375,-0.46728515625,0.090911865234375
1701815078535552000,2.663552001953125,-0.9044342041015625,-0.4847564697265625,0.1962432861328125
1701815078545504800,2.6735048828125,-0.932342529296875,-0.503509521484375,0.2096710205078125
1701815078555456800,2.683456787109375,-0.9080810546875,-0.509918212890625,0.1911773681640625
1701815078565409800,2.693409912109375,-0.86138916015625,-0.5060272216796875,0.1548919677734375
1701815078575362800,2.70336279296875,-0.8449249267578125,-0.4799652099609375,0.1067657470703125
1701815078585315000,2.713315185546875,-0.8807525634765625,-0.4355926513671875,0.1118927001953125
1701815078595268000,2.72326806640625,-0.9459228515625,-0.4007720947265625,0.159210205078125
1701815078605219800,2.7332197265625,-0.9470977783203125,-0.4029083251953125,0.164703369140625
1701815078615172900,2.7431728515625,-0.92523193359375,-0.420379638671875,0.1434326171875
1701815078625124900,2.753124755859375,-0.920074462890625,-0.4327239990234375,0.1712188720703125
1701815078635078000,2.763077880859375,-0.9228057861328125,-0.4113922119140625,0.2064971923828125
1701815078645030100,2.773030029296875,-0.9273529052734375,-0.35888671875,0.2028656005859375
1701815078654983000,2.78298291015625,-0.931671142578125,-0.3401947021484375,0.1542205810546875
1701815078664935000,2.792934814453125,-0.948699951171875,-0.3450927734375,0.1407470703125
1701815078674888000,2.802887939453125,-0.94744873046875,-0.3651275634765625,0.159271240234375
1701815078684840000,2.81283984375,-0.931060791015625,-0.379486083984375,0.167510986328125
1701815078694793000,2.82279296875,-0.9129638671875,-0.3936004638671875,0.15606689453125
1701815078704746000,2.83274609375,-0.8934173583984375,-0.4036407470703125,0.1429595947265625
1701815078714698500,2.842698486328125,-0.8902740478515625,-0.3988494873046875,0.1352386474609375
1701815078724651500,2.852651611328125,-0.8942718505859375,-0.3941192626953125,0.137664794921875
1701815078734603500,2.862603515625,-0.8904266357421875,-0.39208984375,0.14453125
1701815078744556500,2.872556640625,-0.8827362060546875,-0.3910369873046875,0.142425537109375
1701815078754508500,2.882508544921875,-0.8713531494140625,-0.3916168212890625,0.1431732177734375
1701815078764461600,2.892461669921875,-0.8701934814453125,-0.38311767578125,0.1455078125
1701815078774413600,2.90241357421875,-0.8913726806640625,-0.379730224609375,0.14764404296875
1701815078784366600,2.91236669921875,-0.921173095703125,-0.3805389404296875,0.146240234375
1701815078794318300,2.922318359375,-0.9334564208984375,-0.3911895751953125,0.1519012451171875
1701815078804271400,2.932271240234375,-0.9310302734375,-0.40570068359375,0.166595458984375
1701815078814223600,2.9422236328125,-0.9182281494140625,-0.40887451171875,0.1667022705078125
1701815078824176600,2.9521767578125,-0.90240478515625,-0.403564453125,0.1584930419921875
1701815078834128600,2.962128662109375,-0.879974365234375,-0.3949432373046875,0.1485748291015625
1701815078844081700,2.97208154296875,-0.875518798828125,-0.3829345703125,0.1439056396484375
1701815078854034700,2.98203466796875,-0.8830718994140625,-0.386138916015625,0.1439208984375
1701815078863986400,2.991986328125,-0.900848388671875,-0.3910675048828125,0.1434478759765625
1701815078873939500,3.001939453125,-0.927764892578125,-0.38739013671875,0.14312744140625
1701815078883891500,3.011891357421875,-0.9189453125,-0.393310546875,0.145233154296875
1701815078893844500,3.021844482421875,-0.932281494140625,-0.408172607421875,0.1538848876953125
1701815078903796500,3.03179638671875,-0.9553680419921875,-0.419219970703125,0.1621551513671875
1701815078913749500,3.04174951171875,-0.9547271728515625,-0.4150238037109375,0.164031982421875
1701815078923701500,3.051701416015625,-0.9450225830078125,-0.4040069580078125,0.161895751953125
1701815078933654500,3.061654541015625,-0.91790771484375,-0.4001007080078125,0.1508636474609375
1701815078943606500,3.0716064453125,-0.8812255859375,-0.4019927978515625,0.144866943359375
1701815078953559600,3.0815595703125,-0.860107421875,-0.3978424072265625,0.1504974365234375
1701815078963511600,3.091511474609375,-0.8650665283203125,-0.3980560302734375,0.1322479248046875
1701815078973464600,3.101464599609375,-0.8852996826171875,-0.3990325927734375,0.1145477294921875
1701815078983416600,3.11141650390625,-0.9160614013671875,-0.39276123046875,0.1082305908203125
1701815078993369600,3.12136962890625,-0.9452362060546875,-0.38018798828125,0.1098480224609375
1701815079003322600,3.131322509765625,-0.959228515625,-0.3787841796875,0.1104888916015625
1701815079013274400,3.1412744140625,-0.94921875,-0.389678955078125,0.1064300537109375
1701815079023227400,3.151227294921875,-0.930023193359375,-0.3948822021484375,0.106201171875
1701815079033179600,3.1611796875,-0.907806396484375,-0.4011383056640625,0.1097259521484375
1701815079043132400,3.17113232421875,-0.8936767578125,-0.406494140625,0.121063232421875
1701815079053084700,3.181084716796875,-0.8898162841796875,-0.4085845947265625,0.126220703125
1701815079063037700,3.19103759765625,-0.89508056640625,-0.4062042236328125,0.1154937744140625
1701815079072989400,3.200989501953125,-0.8895721435546875,-0.4093170166015625,0.1016082763671875
1701815079082942500,3.2109423828125,-0.8917388916015625,-0.4086456298828125,0.100341796875
1701815079092894500,3.22089453125,-0.907562255859375,-0.405609130859375,0.109649658203125
1701815079102847500,3.230847412109375,-0.9178924560546875,-0.39886474609375,0.116729736328125
1701815079112799700,3.2407998046875,-0.924224853515625,-0.39666748046875,0.1134796142578125
1701815079122752500,3.25075244140625,-0.922943115234375,-0.4010467529296875,0.112152099609375
1701815079132704500,3.26070458984375,-0.91595458984375,-0.408966064453125,0.1158447265625
1701815079142657500,3.270657470703125,-0.907501220703125,-0.4118499755859375,0.1148223876953125
1701815079152610600,3.280610595703125,-0.9040985107421875,-0.4098663330078125,0.10723876953125
1701815079162562600,3.2905625,-0.9010009765625,-0.4052886962890625,0.0981597900390625
1701815079172515600,3.300515625,-0.890777587890625,-0.406646728515625,0.0919952392578125
1701815079182467600,3.310467529296875,-0.8773040771484375,-0.413604736328125,0.0896148681640625
1701815079192420600,3.320420654296875,-0.871185302734375,-0.420928955078125,0.09686279296875
1701815079202372600,3.33037255859375,-0.874755859375,-0.4290924072265625,0.096160888671875
1701815079212325600,3.34032568359375,-0.885040283203125,-0.428314208984375,0.095550537109375
1701815079222277600,3.350277587890625,-0.9092559814453125,-0.4249267578125,0.0862579345703125
1701815079232230700,3.360230712890625,-0.932373046875,-0.413787841796875,0.073699951171875
1701815079242182400,3.370182373046875,-0.9399871826171875,-0.4099578857421875,0.0601043701171875
1701815079252135400,3.380135498046875,-0.9365234375,-0.4083099365234375,0.0581207275390625
1701815079262087700,3.390087646484375,-0.921875,-0.4058685302734375,0.0606536865234375
1701815079272040700,3.400040771484375,-0.9058990478515625,-0.408538818359375,0.0607147216796875
1701815079281992400,3.409992431640625,-0.8928070068359375,-0.4117431640625,0.0650177001953125
1701815079291945500,3.419945556640625,-0.877777099609375,-0.4196624755859375,0.0715179443359375
1701815079301898500,3.4298984375,-0.871337890625,-0.41693115234375,0.0792388916015625
1701815079311850500,3.4398505859375,-0.8699798583984375,-0.415985107421875,0.07244873046875
1701815079321803500,3.449803466796875,-0.8810577392578125,-0.4157867431640625,0.072540283203125
1701815079331755500,3.459755615234375,-0.8874053955078125,-0.415924072265625,0.0686798095703125
1701815079341708500,3.46970849609375,-0.897735595703125,-0.4143829345703125,0.0668792724609375
1701815079351660500,3.47966064453125,-0.904205322265625,-0.41082763671875,0.0690460205078125
1701815079361613600,3.489613525390625,-0.9037322998046875,-0.4188385009765625,0.059906005859375
1701815079371565600,3.499565673828125,-0.9061737060546875,-0.420379638671875,0.06146240234375
1701815079381518600,3.5095185546875,-0.9072418212890625,-0.4193878173828125,0.064697265625
1701815079391470300,3.51947021484375,-0.9123992919921875,-0.4189300537109375,0.0681304931640625
1701815079401423400,3.52942333984375,-0.9193115234375,-0.41668701171875,0.070709228515625
1701815079411375600,3.539375732421875,-0.919891357421875,-0.4214019775390625,0.072998046875
1701815079421328600,3.54932861328125,-0.9183807373046875,-0.424530029296875,0.0794525146484375
1701815079431280600,3.55928076171875,-0.9093475341796875,-0.4251556396484375,0.0806121826171875
1701815079441233700,3.569233642578125,-0.8991241455078125,-0.426605224609375,0.0818634033203125
1701815079451186700,3.579186767578125,-0.8924102783203125,-0.42877197265625,0.08367919921875
1701815079461138400,3.589138427734375,-0.8959503173828125,-0.4287567138671875,0.0780487060546875
1701815079471091500,3.599091552734375,-0.90869140625,-0.42364501953125,0.0625
1701815079481043500,3.60904345703125,-0.9151458740234375,-0.4173583984375,0.0518341064453125
1701815079490996500,3.61899658203125,-0.917633056640625,-0.4162750244140625,0.0500030517578125
1701815079500948500,3.628948486328125,-0.9136505126953125,-0.4215850830078125,0.0516510009765625
1701815079510901500,3.638901611328125,-0.91888427734375,-0.4229736328125,0.05718994140625
1701815079520853500,3.648853515625,-0.92254638671875,-0.423095703125,0.060150146484375
1701815079530806500,3.658806640625,-0.92230224609375,-0.4261474609375,0.0528411865234375
1701815079540758500,3.668758544921875,-0.9169158935546875,-0.423553466796875,0.0475921630859375
1701815079550711600,3.678711669921875,-0.9087982177734375,-0.4225616455078125,0.0473175048828125
1701815079560663600,3.68866357421875,-0.901092529296875,-0.420989990234375,0.047607421875
1701815079570616600,3.698616455078125,-0.8945770263671875,-0.41790771484375,0.050018310546875
1701815079580568600,3.708568603515625,-0.895050048828125,-0.4164581298828125,0.0512542724609375
1701815079590521600,3.718521484375,-0.8996124267578125,-0.4224395751953125,0.050628662109375
1701815079600473600,3.7284736328125,-0.907196044921875,-0.428009033203125,0.0569000244140625
1701815079610426600,3.738426513671875,-0.9068603515625,-0.4275054931640625,0.0609588623046875
1701815079620379400,3.74837939453125,-0.8980560302734375,-0.4249114990234375,0.0606689453125
1701815079630331400,3.758331298828125,-0.8931732177734375,-0.422393798828125,0.0566253662109375
1701815079640284400,3.768284423828125,-0.887481689453125,-0.4212493896484375,0.046234130859375
1701815079650236700,3.778236572265625,-0.880126953125,-0.416900634765625,0.0334930419921875
1701815079660189700,3.788189697265625,-0.8753204345703125,-0.411224365234375,0.02899169921875
1701815079670141400,3.798141357421875,-0.8741455078125,-0.412017822265625,0.0323028564453125
1701815079680094500,3.808094482421875,-0.8773040771484375,-0.4169464111328125,0.0425567626953125
1701815079690046500,3.81804638671875,-0.87939453125,-0.4178466796875,0.045623779296875
1701815079699999500,3.82799951171875,-0.880279541015625,-0.414947509765625,0.04168701171875
1701815079709951200,3.837951171875,-0.886810302734375,-0.41339111328125,0.029296875
1701815079719904000,3.847904052734375,-0.88677978515625,-0.4057464599609375,0.01751708984375
1701815079729856000,3.85785595703125,-0.883270263671875,-0.398101806640625,0.010955810546875
1701815079739809000,3.86780908203125,-0.8846588134765625,-0.3897705078125,0.012451171875
1701815079749761000,3.877760986328125,-0.8834381103515625,-0.3876953125,0.0158233642578125
1701815079759714000,3.887714111328125,-0.8877410888671875,-0.3892822265625,0.024810791015625
1701815079769666000,3.897666015625,-0.901458740234375,-0.3879547119140625,0.0240020751953125
1701815079779619000,3.907619140625,-0.9066162109375,-0.3798065185546875,0.036865234375
1701815079789572000,3.917572021484375,-0.9024200439453125,-0.3813018798828125,0.0596771240234375
1701815079799524000,3.927524169921875,-0.9116363525390625,-0.396331787109375,0.059844970703125
1701815079809477000,3.93747705078125,-0.914093017578125,-0.41546630859375,0.0538177490234375
1701815079819429000,3.94742919921875,-0.9142608642578125,-0.4298248291015625,0.048583984375
1701815079829382000,3.9573818359375,-0.9117279052734375,-0.4341278076171875,0.05767822265625
1701815079839334000,3.967333984375,-0.9091949462890625,-0.4277191162109375,0.06097412109375
1701815079849287000,3.977286865234375,-0.9060211181640625,-0.4204559326171875,0.0543365478515625
1701815079859239200,3.9872392578125,-0.8960113525390625,-0.41900634765625,0.052459716796875
1701815079869192200,3.997192138671875,-0.88604736328125,-0.4185638427734375,0.05462646484375
1701815079879144000,4.00714404296875,-0.876434326171875,-0.4246673583984375,0.0569000244140625
1701815079889097000,4.017096923828125,-0.878875732421875,-0.4362945556640625,0.0513153076171875
1701815079899049000,4.027049072265625,-0.90301513671875,-0.445220947265625,0.0532684326171875
1701815079909002000,4.037001953125,-0.9441070556640625,-0.439849853515625,0.048309326171875
1701815079918954200,4.046954345703125,-0.9763946533203125,-0.4305419921875,0.040435791015625
1701815079928907300,4.0569072265625,-0.9897613525390625,-0.4232025146484375,0.04150390625
1701815079938859000,4.06685888671875,-0.98773193359375,-0.4161224365234375,0.05322265625
1701815079948812000,4.07681201171875,-0.9624481201171875,-0.410064697265625,0.0604248046875
1701815079958764000,4.086763916015625,-0.923004150390625,-0.4070281982421875,0.0721435546875
1701815079968717000,4.096717041015625,-0.88397216796875,-0.4021148681640625,0.091094970703125
1701815079978670000,4.106670166015625,-0.859161376953125,-0.396942138671875,0.1054840087890625
1701815079988621800,4.116621826171875,-0.8598480224609375,-0.4049530029296875,0.1092071533203125
1701815079998574800,4.126574951171875,-0.8686065673828125,-0.42852783203125,0.1168670654296875
1701815080008527000,4.136527099609375,-0.865692138671875,-0.4445037841796875,0.1236419677734375
1701815080018480000,4.146480224609375,-0.8669586181640625,-0.449249267578125,0.1220550537109375
1701815080028432100,4.15643212890625,-0.878082275390625,-0.4483642578125,0.1290740966796875
1701815080038385200,4.16638525390625,-0.8871917724609375,-0.4364013671875,0.134063720703125
1701815080048337000,4.1763369140625,-0.8761444091796875,-0.4273529052734375,0.1314697265625
1701815080058290000,4.1862900390625,-0.86199951171875,-0.427703857421875,0.1278533935546875
1701815080068242200,4.1962421875,-0.877593994140625,-0.43267822265625,0.1226348876953125
1701815080078195200,4.2061953125,-0.8906097412109375,-0.442840576171875,0.1306915283203125
1701815080088147200,4.216147216796875,-0.8934783935546875,-0.4434356689453125,0.136749267578125
1701815080098100000,4.226099853515625,-0.9039764404296875,-0.436614990234375,0.132659912109375
1701815080108052000,4.236052001953125,-0.92669677734375,-0.4254608154296875,0.125701904296875
1701815080118005000,4.2460048828125,-0.934417724609375,-0.4187164306640625,0.121002197265625
1701815080127957000,4.25595703125,-0.925750732421875,-0.4152984619140625,0.1177215576171875
1701815080137910000,4.265909912109375,-0.9080352783203125,-0.405609130859375,0.1100006103515625
1701815080147863000,4.275863037109375,-0.8980865478515625,-0.3939361572265625,0.097381591796875
1701815080157815000,4.28581494140625,-0.904327392578125,-0.3946075439453125,0.090576171875
1701815080167768000,4.29576806640625,-0.89892578125,-0.39288330078125,0.0959930419921875
1701815080177720000,4.305719970703125,-0.8791656494140625,-0.392913818359375,0.108245849609375
1701815080187673000,4.315673095703125,-0.873748779296875,-0.3919525146484375,0.1112518310546875
1701815080197625000,4.325625,-0.8956756591796875,-0.390289306640625,0.116668701171875
1701815080207577900,4.335577880859375,-0.926910400390625,-0.382598876953125,0.120819091796875
1701815080217530000,4.345530029296875,-0.9404754638671875,-0.38037109375,0.0965118408203125
1701815080227483100,4.355483154296875,-0.9379730224609375,-0.397003173828125,0.0931396484375
1701815080237435100,4.36543505859375,-0.9317626953125,-0.4012908935546875,0.1103363037109375
1701815080247388200,4.37538818359375,-0.9166717529296875,-0.4009246826171875,0.106231689453125
1701815080257340000,4.38533984375,-0.894866943359375,-0.403594970703125,0.10418701171875
1701815080267293000,4.39529296875,-0.8813323974609375,-0.40032958984375,0.1067047119140625
1701815080277245000,4.405244873046875,-0.8774566650390625,-0.3948822021484375,0.10394287109375
1701815080287198000,4.415197998046875,-0.8885650634765625,-0.393096923828125,0.0996551513671875
1701815080297150200,4.425150146484375,-0.9091796875,-0.3880615234375,0.0963592529296875
1701815080307103200,4.435103271484375,-0.925384521484375,-0.3719940185546875,0.0980682373046875
1701815080317055000,4.445054931640625,-0.938934326171875,-0.3419189453125,0.0815887451171875
1701815080327008000,4.455008056640625,-0.9457550048828125,-0.323028564453125,0.068939208984375
1701815080336961000,4.4649609375,-0.93951416015625,-0.3173675537109375,0.079254150390625
1701815080346913000,4.4749130859375,-0.9304046630859375,-0.3128204345703125,0.097381591796875
1701815080356866000,4.484865966796875,-0.9130096435546875,-0.2985382080078125,0.13616943359375
1701815080366818000,4.494818115234375,-0.902099609375,-0.2758331298828125,0.1561431884765625
1701815080376771000,4.50477099609375,-0.8972930908203125,-0.2526702880859375,0.17437744140625
1701815080386723000,4.51472314453125,-0.8923492431640625,-0.2380218505859375,0.1805877685546875
1701815080396676000,4.524676025390625,-0.88299560546875,-0.247589111328125,0.1659698486328125
1701815080406628000,4.534628173828125,-0.8793487548828125,-0.26519775390625,0.155120849609375
1701815080416581000,4.5445810546875,-0.886749267578125,-0.2954864501953125,0.118896484375
1701815080426532900,4.554532958984375,-0.8847808837890625,-0.3415374755859375,0.091278076171875
1701815080436486000,4.56448583984375,-0.890960693359375,-0.4177093505859375,0.031219482421875
1701815080446438100,4.574438232421875,-0.9196929931640625,-0.488616943359375,-0.0449676513671875
1701815080456391200,4.58439111328125,-0.9314117431640625,-0.569488525390625,-0.1056976318359375
1701815080466343200,4.59434326171875,-0.9564056396484375,-0.6457366943359375,-0.1378631591796875
1701815080476296000,4.6042958984375,-0.970367431640625,-0.6833953857421875,-0.0578460693359375
1701815080486249000,4.6142490234375,-0.889007568359375,-0.6279144287109375,0.134002685546875
1701815080496201000,4.624200927734375,-0.8708038330078125,-0.4770355224609375,0.156829833984375
1701815080506154000,4.634154052734375,-0.8947601318359375,-0.3453826904296875,0.0829315185546875
1701815080516106200,4.644106201171875,-0.91363525390625,-0.318084716796875,0.0384979248046875
1701815080526059300,4.654059326171875,-0.94342041015625,-0.3350982666015625,0.021636962890625
1701815080536011000,4.664010986328125,-0.983489990234375,-0.369598388671875,0.0032196044921875
1701815080545964000,4.673964111328125,-1.006256103515625,-0.3837432861328125,-0.0008392333984375
1701815080555916000,4.683916015625,-1.0223541259765625,-0.3648223876953125,-0.0053253173828125
1701815080565869000,4.693869140625,-1.032257080078125,-0.344085693359375,-0.033172607421875
1701815080575821000,4.703821044921875,-1.0259246826171875,-0.32781982421875,-0.051483154296875
1701815080585773800,4.71377392578125,-1.003448486328125,-0.32818603515625,-0.04296875
1701815080595726000,4.72372607421875,-0.9750823974609375,-0.3457489013671875,-0.01104736328125
1701815080605679000,4.73367919921875,-0.94873046875,-0.363006591796875,0.0233154296875
1701815080615631000,4.743631103515625,-0.925811767578125,-0.37493896484375,0.05438232421875
1701815080625584000,4.753584228515625,-0.90875244140625,-0.3816680908203125,0.0504608154296875
1701815080635536000,4.763535888671875,-0.8994598388671875,-0.373382568359375,0.0211944580078125
1701815080645489000,4.773489013671875,-0.905792236328125,-0.3544158935546875,0.0007171630859375
1701815080655441200,4.783441162109375,-0.899505615234375,-0.3406524658203125,-0.0063629150390625
1701815080665394200,4.793394287109375,-0.8751983642578125,-0.353912353515625,0.0096282958984375
1701815080675346200,4.80334619140625,-0.87078857421875,-0.3783416748046875,0.03411865234375
1701815080685299200,4.81329931640625,-0.8865509033203125,-0.379150390625,0.062530517578125
1701815080695252000,4.823251953125,-0.9182281494140625,-0.3345489501953125,0.11810302734375
1701815080705204000,4.833203857421875,-0.942108154296875,-0.35504150390625,0.1080780029296875
1701815080715157800,4.84315771484375,-0.9333038330078125,-0.4259490966796875,0.0621490478515625
1701815080725109500,4.853109619140625,-0.9136505126953125,-0.437530517578125,0.0493927001953125
1701815080735062500,4.8630625,-0.8986663818359375,-0.419464111328125,0.060516357421875
1701815080745014800,4.873014892578125,-0.8890533447265625,-0.4077911376953125,0.06915283203125
1701815080754967800,4.8829677734375,-0.8841400146484375,-0.40789794921875,0.0629425048828125
1701815080764919800,4.892919921875,-0.8909149169921875,-0.4203643798828125,0.05853271484375
1701815080774872800,4.902872802734375,-0.90252685546875,-0.4317626953125,0.0500946044921875
1701815080784824600,4.912824462890625,-0.9185943603515625,-0.4369659423828125,0.0449371337890625
1701815080794777600,4.922777587890625,-0.9266510009765625,-0.4381561279296875,0.036895751953125
1701815080804729600,4.9327294921875,-0.93109130859375,-0.4320068359375,0.0231475830078125
1701815080814682600,4.9426826171875,-0.9384307861328125,-0.430419921875,0.0287322998046875
1701815080824635000,4.952634765625,-0.9483795166015625,-0.4366607666015625,0.0528717041015625
1701815080834587600,4.962587646484375,-0.958404541015625,-0.43927001953125,0.0630340576171875
1701815080844540700,4.972540771484375,-0.95672607421875,-0.437103271484375,0.060882568359375
1701815080854492700,4.98249267578125,-0.944976806640625,-0.4365234375,0.055755615234375
1701815080864445700,4.99244580078125,-0.92962646484375,-0.4338226318359375,0.04736328125
1701815080874397700,5.002397705078125,-0.91278076171875,-0.4287567138671875,0.0424041748046875
1701815080884350700,5.012350830078125,-0.9037628173828125,-0.4290771484375,0.0412750244140625
1701815080894302700,5.022302734375,-0.894622802734375,-0.4297027587890625,0.03961181640625
1701815080904255700,5.032255859375,-0.8822784423828125,-0.431396484375,0.0457611083984375
1701815080914207700,5.042207763671875,-0.873809814453125,-0.4362640380859375,0.0529022216796875
1701815080924160800,5.052160888671875,-0.879852294921875,-0.4409942626953125,0.0609283447265625
1701815080934112800,5.06211279296875,-0.8912506103515625,-0.44329833984375,0.0746917724609375
1701815080944065500,5.0720654296875,-0.922515869140625,-0.441162109375,0.0831451416015625
1701815080954017500,5.082017578125,-0.956787109375,-0.439971923828125,0.0841217041015625
1701815080963970600,5.091970458984375,-0.9822845458984375,-0.4320526123046875,0.091888427734375
1701815080973923600,5.101923583984375,-1.001556396484375,-0.4156646728515625,0.0956268310546875
1701815080983875800,5.111875732421875,-1.0099334716796875,-0.39898681640625,0.0867156982421875
1701815080993827600,5.12182763671875,-1.004791259765625,-0.3886871337890625,0.0665740966796875
1701815081003779600,5.131779541015625,-0.989593505859375,-0.3793182373046875,0.0552215576171875
1701815081013732600,5.141732666015625,-0.9714813232421875,-0.37005615234375,0.04779052734375
1701815081023684900,5.151684814453125,-0.959808349609375,-0.366455078125,0.0423736572265625
1701815081033638000,5.161637939453125,-0.9550933837890625,-0.371551513671875,0.031219482421875
1701815081043589600,5.171589599609375,-0.949310302734375,-0.3800506591796875,0.023406982421875
1701815081053542700,5.181542724609375,-0.9474334716796875,-0.4014434814453125,0.030792236328125
1701815081063494700,5.19149462890625,-0.9364166259765625,-0.4430694580078125,0.056671142578125
1701815081073447700,5.20144775390625,-0.9148406982421875,-0.474853515625,0.088531494140625
1701815081083400700,5.211400634765625,-0.8974761962890625,-0.48370361328125,0.122467041015625
1701815081093352400,5.2213525390625,-0.8969268798828125,-0.4827423095703125,0.147796630859375
1701815081103305500,5.231305419921875,-0.927825927734375,-0.4774322509765625,0.15179443359375
1701815081113257700,5.2412578125,-0.981964111328125,-0.4548187255859375,0.1390533447265625
1701815081123210800,5.251210693359375,-1.0641632080078125,-0.408203125,0.085662841796875
1701815081133162800,5.261162841796875,-1.1594696044921875,-0.3526763916015625,0.0171356201171875
1701815081143115800,5.27111572265625,-1.2288055419921875,-0.301422119140625,-0.0303497314453125
1701815081153067500,5.281067626953125,-1.266845703125,-0.2620086669921875,-0.0559234619140625
1701815081163020500,5.2910205078125,-1.275970458984375,-0.2338714599609375,-0.0625152587890625
1701815081172972800,5.300972900390625,-1.2557830810546875,-0.22027587890625,-0.0510406494140625
1701815081182925800,5.31092578125,-1.1963043212890625,-0.2236480712890625,-0.0378875732421875
1701815081192877800,5.3208779296875,-1.1239471435546875,-0.2465057373046875,-0.0282745361328125
1701815081202830600,5.33083056640625,-1.04559326171875,-0.2850494384765625,-0.011962890625
1701815081212783600,5.34078369140625,-0.970611572265625,-0.327880859375,0.0083770751953125
1701815081222735600,5.350735595703125,-0.922271728515625,-0.357147216796875,0.0279083251953125
1701815081232688600,5.360688720703125,-0.888153076171875,-0.3631439208984375,0.0206756591796875
1701815081242640600,5.370640625,-0.882537841796875,-0.361053466796875,0.020294189453125
1701815081252593700,5.38059375,-0.917388916015625,-0.3566131591796875,0.0125579833984375
1701815081262545700,5.390545654296875,-0.9710540771484375,-0.347320556640625,0.0054779052734375
1701815081272498700,5.400498779296875,-1.0059661865234375,-0.32476806640625,0.0010986328125
1701815081282450700,5.41045068359375,-1.0226898193359375,-0.3075408935546875,-0.00927734375
1701815081292403700,5.42040380859375,-1.0203094482421875,-0.3067474365234375,-0.0274200439453125
1701815081302355700,5.430355712890625,-1.0025177001953125,-0.314300537109375,-0.0359954833984375
1701815081312308700,5.440308837890625,-0.9686126708984375,-0.3181915283203125,-0.036834716796875
1701815081322261500,5.450261474609375,-0.932769775390625,-0.314056396484375,-0.0330352783203125
1701815081332213800,5.4602138671875,-0.898834228515625,-0.311553955078125,-0.0255584716796875
1701815081342166800,5.470166748046875,-0.871673583984375,-0.330108642578125,-0.02764892578125
1701815081352118800,5.480118896484375,-0.8449859619140625,-0.358489990234375,-0.04193115234375
1701815081362071800,5.49007177734375,-0.825225830078125,-0.3730316162109375,-0.052154541015625
1701815081372023600,5.5000234375,-0.8209686279296875,-0.3781280517578125,-0.0645904541015625
1701815081381976600,5.5099765625,-0.84747314453125,-0.3794708251953125,-0.08563232421875
1701815081391928600,5.519928466796875,-0.880462646484375,-0.3699798583984375,-0.0955047607421875
1701815081401881600,5.529881591796875,-0.9268646240234375,-0.3603973388671875,-0.090057373046875
1701815081411833900,5.539833740234375,-0.95843505859375,-0.3751678466796875,-0.0778350830078125
1701815081421787000,5.549786865234375,-0.978363037109375,-0.4103851318359375,-0.060089111328125
1701815081431738600,5.559738525390625,-0.974822998046875,-0.4499969482421875,-0.0192108154296875
1701815081441691600,5.569691650390625,-0.95001220703125,-0.472686767578125,0.0358123779296875
1701815081451644700,5.579644775390625,-0.907440185546875,-0.47119140625,0.1000213623046875
1701815081461596700,5.5895966796875,-0.8554840087890625,-0.44403076171875,0.152130126953125
1701815081471549700,5.5995498046875,-0.8112945556640625,-0.4124908447265625,0.191070556640625
1701815081481501700,5.609501708984375,-0.79010009765625,-0.38946533203125,0.2184295654296875
1701815081491454700,5.619454833984375,-0.781707763671875,-0.3776397705078125,0.232147216796875
1701815081501406700,5.62940673828125,-0.783538818359375,-0.3768768310546875,0.2341766357421875
1701815081511359700,5.63935986328125,-0.7828521728515625,-0.373138427734375,0.230712890625
1701815081521311700,5.649311767578125,-0.77935791015625,-0.365478515625,0.214080810546875
1701815081531264800,5.6592646484375,-0.7671661376953125,-0.3610076904296875,0.1929168701171875
1701815081541216500,5.669216552734375,-0.7405548095703125,-0.35443115234375,0.167724609375
1701815081551169500,5.67916943359375,-0.6997222900390625,-0.3348541259765625,0.1347808837890625
1701815081561122600,5.68912255859375,-0.665802001953125,-0.3057708740234375,0.0962982177734375
1701815081571074800,5.69907470703125,-0.6405029296875,-0.2837371826171875,0.05780029296875
1701815081581027800,5.70902783203125,-0.62451171875,-0.2856903076171875,0.0150909423828125
1701815081590979600,5.7189794921875,-0.626708984375,-0.3012847900390625,-0.021759033203125
1701815081600932600,5.7289326171875,-0.6285552978515625,-0.3181304931640625,-0.05657958984375
1701815081610884600,5.738884521484375,-0.6275177001953125,-0.325897216796875,-0.0822296142578125
1701815081620837600,5.748837646484375,-0.624542236328125,-0.335296630859375,-0.099853515625
1701815081630789600,5.75878955078125,-0.6172332763671875,-0.3527374267578125,-0.1083221435546875
1701815081640742700,5.76874267578125,-0.6025390625,-0.383544921875,-0.118408203125
1701815081650694700,5.778694580078125,-0.576385498046875,-0.424407958984375,-0.1362457275390625
1701815081660647700,5.788647705078125,-0.5579681396484375,-0.4705047607421875,-0.155853271484375
1701815081670599700,5.798599609375,-0.5478057861328125,-0.517547607421875,-0.1732025146484375
1701815081680552700,5.808552734375,-0.5482177734375,-0.553131103515625,-0.1788177490234375
1701815081690505700,5.818505615234375,-0.58013916015625,-0.554901123046875,-0.1703948974609375
1701815081700457500,5.82845751953125,-0.6447906494140625,-0.53143310546875,-0.15911865234375
1701815081710410500,5.838410400390625,-0.74298095703125,-0.494720458984375,-0.1434478759765625
1701815081720362800,5.84836279296875,-0.84674072265625,-0.45428466796875,-0.1272125244140625
1701815081730315500,5.8583154296875,-0.9345245361328125,-0.419342041015625,-0.121429443359375
1701815081740267500,5.868267578125,-0.9981536865234375,-0.3970947265625,-0.1264801025390625
1701815081750220500,5.878220458984375,-1.0274658203125,-0.3898468017578125,-0.13653564453125
1701815081760172500,5.888172607421875,-1.0343017578125,-0.372222900390625,-0.145416259765625
1701815081770125600,5.89812548828125,-1.0558319091796875,-0.3467864990234375,-0.16473388671875
1701815081780077600,5.90807763671875,-1.0765838623046875,-0.319549560546875,-0.1990509033203125
1701815081790030600,5.918030517578125,-1.0894622802734375,-0.295166015625,-0.2032623291015625
1701815081799982600,5.927982666015625,-1.111083984375,-0.30084228515625,-0.174072265625
1701815081809935600,5.937935546875,-1.132476806640625,-0.3166961669921875,-0.1261444091796875
1701815081819887600,5.9478876953125,-1.152069091796875,-0.3232269287109375,-0.0882110595703125
1701815081829840600,5.957840576171875,-1.16033935546875,-0.338134765625,-0.04766845703125
1701815081839793400,5.96779345703125,-1.1550140380859375,-0.3491973876953125,-0.00738525390625
1701815081849745400,5.977745361328125,-1.1368865966796875,-0.35174560546875,0.0203704833984375
1701815081859698400,5.987698486328125,-1.111846923828125,-0.3566436767578125,0.036041259765625
1701815081869650700,5.997650634765625,-1.0786895751953125,-0.363037109375,0.050262451171875
1701815081879603700,6.007603759765625,-1.04754638671875,-0.368255615234375,0.0599822998046875
1701815081889555500,6.017555419921875,-1.0186767578125,-0.37884521484375,0.059814453125
1701815081899508500,6.027508544921875,-0.99835205078125,-0.39520263671875,0.0597686767578125
1701815081909460500,6.03746044921875,-0.987945556640625,-0.40521240234375,0.057708740234375
1701815081919413500,6.04741357421875,-0.9868621826171875,-0.4040374755859375,0.05535888671875
1701815081929365800,6.05736572265625,-0.987060546875,-0.3870086669921875,0.05560302734375
1701815081939318800,6.06731884765625,-0.9749298095703125,-0.376068115234375,0.038665771484375
1701815081949270500,6.0772705078125,-0.946868896484375,-0.389739990234375,0.0161285400390625
1701815081959223600,6.0872236328125,-0.925323486328125,-0.410675048828125,0.005523681640625
1701815081969176600,6.097176513671875,-0.9154510498046875,-0.429412841796875,0.0037994384765625
1701815081979128600,6.107128662109375,-0.9121246337890625,-0.4376983642578125,0.01092529296875
1701815081989081600,6.11708154296875,-0.91192626953125,-0.4381866455078125,0.022552490234375
1701815081999033300,6.127033447265625,-0.9125518798828125,-0.4438629150390625,0.0318145751953125
1701815082008986400,6.136986328125,-0.909027099609375,-0.44219970703125,0.0496063232421875
1701815082018938600,6.146938720703125,-0.9024810791015625,-0.44232177734375,0.0659027099609375
1701815082028891600,6.1568916015625,-0.89080810546875,-0.4403228759765625,0.0761871337890625
1701815082038843600,6.16684375,-0.876678466796875,-0.4344024658203125,0.078277587890625
1701815082048796700,6.176796630859375,-0.8641510009765625,-0.431732177734375,0.0712890625
1701815082058748400,6.18674853515625,-0.8594512939453125,-0.4341278076171875,0.0621795654296875
1701815082068701400,6.196701416015625,-0.85821533203125,-0.4401397705078125,0.051544189453125
1701815082078653700,6.20665380859375,-0.86175537109375,-0.4405517578125,0.0377044677734375
1701815082088606700,6.216606689453125,-0.86651611328125,-0.4342803955078125,0.028106689453125
1701815082098559700,6.226559814453125,-0.868927001953125,-0.426055908203125,0.0155487060546875
1701815082108511500,6.236511474609375,-0.871002197265625,-0.4204559326171875,0.0077667236328125
1701815082118464500,6.246464599609375,-0.870208740234375,-0.417724609375,0.001739501953125
1701815082128416500,6.25641650390625,-0.868072509765625,-0.4191131591796875,-0.0047149658203125
1701815082138369500,6.26636962890625,-0.86553955078125,-0.41839599609375,-0.0072784423828125
1701815082148321500,6.276321533203125,-0.86285400390625,-0.4186248779296875,-0.0133056640625
1701815082158274600,6.286274658203125,-0.8589935302734375,-0.4206695556640625,-0.019317626953125
1701815082168226600,6.2962265625,-0.8535308837890625,-0.426361083984375,-0.025299072265625
1701815082178179600,6.3061796875,-0.8481903076171875,-0.4275360107421875,-0.0318145751953125
1701815082188131600,6.316131591796875,-0.849578857421875,-0.4269256591796875,-0.0416717529296875
1701815082198084600,6.326084716796875,-0.8538970947265625,-0.42694091796875,-0.0500946044921875
1701815082208036600,6.33603662109375,-0.86224365234375,-0.4278564453125,-0.05670166015625
1701815082217989400,6.3459892578125,-0.8759918212890625,-0.4286041259765625,-0.056396484375
1701815082227941600,6.355941650390625,-0.8915557861328125,-0.42559814453125,-0.0576019287109375
1701815082237894700,6.365894775390625,-0.9036407470703125,-0.422698974609375,-0.057952880859375
1701815082247847700,6.37584765625,-0.9090576171875,-0.418975830078125,-0.0565338134765625
1701815082257799700,6.385799560546875,-0.9109344482421875,-0.41644287109375,-0.0591583251953125
1701815082267752700,6.395752685546875,-0.91204833984375,-0.414306640625,-0.062713623046875
1701815082277704400,6.405704345703125,-0.9097900390625,-0.41302490234375,-0.0654754638671875
1701815082287657500,6.415657470703125,-0.91168212890625,-0.413055419921875,-0.062408447265625
1701815082297609500,6.425609375,-0.911163330078125,-0.41217041015625,-0.063262939453125
1701815082307562500,6.4355625,-0.915008544921875,-0.4128875732421875,-0.0616302490234375
1701815082317514800,6.4455146484375,-0.919677734375,-0.411895751953125,-0.05810546875
1701815082327467500,6.455467529296875,-0.9256744384765625,-0.41156005859375,-0.054656982421875
1701815082337419500,6.46541943359375,-0.92767333984375,-0.4074859619140625,-0.0535888671875
1701815082347372500,6.47537255859375,-0.925567626953125,-0.397613525390625,-0.051177978515625
1701815082357324500,6.485324462890625,-0.923309326171875,-0.3919830322265625,-0.047332763671875
1701815082367277600,6.495277587890625,-0.9190521240234375,-0.387115478515625,-0.0419921875
1701815082377229600,6.5052294921875,-0.9154510498046875,-0.3847808837890625,-0.0357513427734375
1701815082387182600,6.5151826171875,-0.91650390625,-0.38165283203125,-0.0264739990234375
1701815082397135600,6.525135498046875,-0.9182281494140625,-0.3807830810546875,-0.0240631103515625
1701815082407087600,6.535087646484375,-0.9238739013671875,-0.386444091796875,-0.0241851806640625
1701815082417040600,6.54504052734375,-0.93011474609375,-0.394073486328125,-0.0266876220703125
1701815082426992600,6.55499267578125,-0.931549072265625,-0.3971405029296875,-0.0307464599609375
1701815082436945400,6.5649453125,-0.932830810546875,-0.396575927734375,-0.03387451171875
1701815082446897400,6.5748974609375,-0.93475341796875,-0.3966522216796875,-0.043182373046875
1701815082456850400,6.584850341796875,-0.9325714111328125,-0.400177001953125,-0.0520477294921875
1701815082466802700,6.594802734375,-0.928131103515625,-0.400360107421875,-0.05487060546875
1701815082476755700,6.604755615234375,-0.92279052734375,-0.403900146484375,-0.05877685546875
1701815082486707500,6.61470751953125,-0.9156341552734375,-0.40435791015625,-0.0608673095703125
1701815082496660500,6.624660400390625,-0.9107513427734375,-0.4055938720703125,-0.0629730224609375
1701815082506612500,6.634612548828125,-0.9086456298828125,-0.402313232421875,-0.0677642822265625
1701815082516565500,6.6445654296875,-0.90789794921875,-0.397430419921875,-0.071014404296875
1701815082526517500,6.654517578125,-0.9083251953125,-0.3921051025390625,-0.0737762451171875
1701815082536470500,6.664470458984375,-0.91064453125,-0.388275146484375,-0.0777435302734375
1701815082546423600,6.674423583984375,-0.914794921875,-0.381011962890625,-0.0818939208984375
1701815082556375600,6.68437548828125,-0.9187469482421875,-0.374755859375,-0.0901947021484375
1701815082566328600,6.69432861328125,-0.9235382080078125,-0.3735198974609375,-0.0980224609375
1701815082576280600,6.704280517578125,-0.9305572509765625,-0.373443603515625,-0.10089111328125
1701815082586233600,6.714233642578125,-0.932281494140625,-0.3721160888671875,-0.0998077392578125
1701815082596185300,6.724185302734375,-0.927490234375,-0.3747100830078125,-0.094818115234375
1701815082606138400,6.734138427734375,-0.9228973388671875,-0.379058837890625,-0.091827392578125
1701815082616090600,6.744090576171875,-0.912628173828125,-0.38427734375,-0.0878143310546875
1701815082626043600,6.754043701171875,-0.9030303955078125,-0.3863067626953125,-0.079498291015625
1701815082635995600,6.76399560546875,-0.8970184326171875,-0.3863677978515625,-0.0699462890625
1701815082645948700,6.77394873046875,-0.8920135498046875,-0.384063720703125,-0.0638580322265625
1701815082655900400,6.783900390625,-0.88946533203125,-0.3812255859375,-0.063446044921875
1701815082665853400,6.793853515625,-0.888824462890625,-0.374908447265625,-0.0681610107421875
1701815082675805700,6.8038056640625,-0.89019775390625,-0.372772216796875,-0.0724945068359375
1701815082685758500,6.813758544921875,-0.895233154296875,-0.3733367919921875,-0.077056884765625
1701815082695711500,6.82371142578125,-0.89947509765625,-0.3722381591796875,-0.0790557861328125
1701815082705663500,6.83366357421875,-0.90460205078125,-0.3665313720703125,-0.0813751220703125
1701815082715617000,6.843616943359375,-0.911224365234375,-0.36541748046875,-0.0860595703125
1701815082725568800,6.85356884765625,-0.9145660400390625,-0.3693389892578125,-0.09393310546875
1701815082735521800,6.863521728515625,-0.91949462890625,-0.3741302490234375,-0.0970611572265625
1701815082745473800,6.873473876953125,-0.91827392578125,-0.3801727294921875,-0.10247802734375
1701815082755426800,6.8834267578125,-0.912567138671875,-0.3868255615234375,-0.1016998291015625
1701815082765379000,6.893379150390625,-0.9054412841796875,-0.38818359375,-0.1013946533203125
1701815082775331800,6.903331787109375,-0.898529052734375,-0.3910980224609375,-0.09869384765625
1701815082785283800,6.913283935546875,-0.8972320556640625,-0.389404296875,-0.0977935791015625
1701815082795236900,6.92323681640625,-0.90533447265625,-0.3848419189453125,-0.0957794189453125
1701815082805188900,6.93318896484375,-0.916107177734375,-0.379119873046875,-0.09515380859375
1701815082815142000,6.943141845703125,-0.9286041259765625,-0.3734283447265625,-0.102203369140625
1701815082825093600,6.95309375,-0.9429168701171875,-0.3697357177734375,-0.1107940673828125
1701815082835046700,6.963046630859375,-0.953948974609375,-0.367706298828125,-0.1172943115234375
1701815082844999000,6.9729990234375,-0.9610443115234375,-0.362518310546875,-0.121612548828125
1701815082854952000,6.982951904296875,-0.9611358642578125,-0.36083984375,-0.12774658203125
1701815082864905000,6.992905029296875,-0.959686279296875,-0.3573455810546875,-0.1320037841796875
1701815082874857000,7.00285693359375,-0.95904541015625,-0.3526763916015625,-0.1311492919921875
1701815082884809700,7.012809814453125,-0.9552459716796875,-0.3461456298828125,-0.129791259765625
1701815082894761700,7.02276171875,-0.952392578125,-0.3363189697265625,-0.1317901611328125
1701815082904714800,7.03271484375,-0.9544219970703125,-0.3278045654296875,-0.1304473876953125
1701815082914667000,7.0426669921875,-0.9569854736328125,-0.320037841796875,-0.1286468505859375
1701815082924620000,7.0526201171875,-0.9600067138671875,-0.313751220703125,-0.1282501220703125
1701815082934571800,7.06257177734375,-0.9604949951171875,-0.31103515625,-0.128387451171875
1701815082944524800,7.07252490234375,-0.9603118896484375,-0.3063812255859375,-0.129425048828125
1701815082954476800,7.082476806640625,-0.9624786376953125,-0.306671142578125,-0.1282501220703125
1701815082964429800,7.092429931640625,-0.962066650390625,-0.3086395263671875,-0.12335205078125
1701815082974381800,7.1023818359375,-0.9638824462890625,-0.31353759765625,-0.11395263671875
1701815082984334800,7.1123349609375,-0.965179443359375,-0.316436767578125,-0.104339599609375
1701815082994286800,7.122286865234375,-0.9652099609375,-0.3193817138671875,-0.092498779296875
1701815083004240000,7.132239990234375,-0.962310791015625,-0.32318115234375,-0.0801239013671875
1701815083014191900,7.14219189453125,-0.957489013671875,-0.3245391845703125,-0.068511962890625
1701815083024145000,7.152144775390625,-0.955230712890625,-0.3280181884765625,-0.0628814697265625
1701815083034098000,7.162097900390625,-0.9571380615234375,-0.33526611328125,-0.05926513671875
1701815083044049700,7.172049560546875,-0.961334228515625,-0.341064453125,-0.056182861328125
1701815083054002700,7.182002685546875,-0.969390869140625,-0.3468780517578125,-0.053741455078125
1701815083063955000,7.191954833984375,-0.97100830078125,-0.347686767578125,-0.0540618896484375
1701815083073908000,7.201907958984375,-0.9694671630859375,-0.350372314453125,-0.055816650390625
1701815083083860000,7.21185986328125,-0.9718017578125,-0.3525848388671875,-0.05767822265625
1701815083093813000,7.22181298828125,-0.9698638916015625,-0.3559417724609375,-0.05462646484375
1701815083103764700,7.2317646484375,-0.9680633544921875,-0.3577880859375,-0.0498504638671875
1701815083113717800,7.2417177734375,-0.96771240234375,-0.354461669921875,-0.0479888916015625
1701815083123669800,7.251669677734375,-0.964996337890625,-0.346588134765625,-0.0434112548828125
1701815083133622800,7.261622802734375,-0.9636688232421875,-0.3455657958984375,-0.0396728515625
1701815083143575000,7.271574951171875,-0.9637908935546875,-0.3460540771484375,-0.035491943359375
1701815083153527800,7.28152783203125,-0.9618377685546875,-0.342620849609375,-0.03216552734375
1701815083163479800,7.291479736328125,-0.96136474609375,-0.337921142578125,-0.027618408203125
1701815083173432800,7.301432861328125,-0.9613189697265625,-0.3372650146484375,-0.0222015380859375
1701815083183384800,7.311384765625,-0.9611053466796875,-0.333404541015625,-0.01715087890625
1701815083193337900,7.321337890625,-0.9549560546875,-0.3325958251953125,-0.012054443359375
1701815083203291000,7.331290771484375,-0.9479827880859375,-0.3335418701171875,-0.0104827880859375
1701815083213243000,7.341242919921875,-0.943389892578125,-0.337615966796875,-0.0107574462890625
1701815083223196000,7.35119580078125,-0.937774658203125,-0.3414306640625,-0.006378173828125
1701815083233148000,7.36114794921875,-0.9353485107421875,-0.3472747802734375,-0.00335693359375
1701815083243101000,7.371100830078125,-0.9301910400390625,-0.35150146484375,0.004730224609375
1701815083253053000,7.381052978515625,-0.929595947265625,-0.3558807373046875,0.008514404296875
1701815083263005700,7.391005615234375,-0.9322967529296875,-0.3582611083984375,0.0125579833984375
1701815083272957700,7.400957763671875,-0.9366607666015625,-0.3615264892578125,0.017120361328125
1701815083282910700,7.41091064453125,-0.9412689208984375,-0.36212158203125,0.022186279296875
1701815083292863000,7.420863037109375,-0.9431915283203125,-0.3618316650390625,0.02313232421875
1701815083302816000,7.43081591796875,-0.939544677734375,-0.3642120361328125,0.0243377685546875
1701815083312767700,7.440767822265625,-0.931365966796875,-0.3669891357421875,0.025665283203125
1701815083322720800,7.450720703125,-0.9219207763671875,-0.3715362548828125,0.023101806640625
1701815083332672800,7.4606728515625,-0.910491943359375,-0.3728485107421875,0.0181427001953125
1701815083342625800,7.470625732421875,-0.901031494140625,-0.3722381591796875,0.013336181640625
1701815083352578000,7.480578125,-0.8988037109375,-0.3721923828125,0.0100555419921875
1701815083362531000,7.490531005859375,-0.9028778076171875,-0.3735809326171875,0.006988525390625
1701815083372482800,7.50048291015625,-0.9048004150390625,-0.370452880859375,0.0028076171875
1701815083382435800,7.510435791015625,-0.9068450927734375,-0.366668701171875,0.0015106201171875
1701815083392388900,7.520388916015625,-0.91015625,-0.3636474609375,-0.0010986328125
1701815083402340900,7.5303408203125,-0.9146728515625,-0.362945556640625,-0.0004730224609375
1701815083412294000,7.5402939453125,-0.91949462890625,-0.3646087646484375,0.0003509521484375
1701815083422245600,7.55024560546875,-0.9252777099609375,-0.3655548095703125,-0.0008544921875
1701815083432198700,7.56019873046875,-0.9306640625,-0.3658294677734375,-0.003509521484375
1701815083442151000,7.57015087890625,-0.9309234619140625,-0.3656158447265625,-0.00390625
1701815083452104000,7.58010400390625,-0.9290313720703125,-0.3667449951171875,-0.006195068359375
1701815083462056000,7.590055908203125,-0.925811767578125,-0.3691558837890625,-0.0060272216796875
1701815083472009000,7.600009033203125,-0.9206695556640625,-0.370697021484375,-0.0087890625
1701815083481960700,7.609960693359375,-0.917877197265625,-0.368438720703125,-0.0105743408203125
1701815083491913700,7.619913818359375,-0.9161529541015625,-0.3663482666015625,-0.00885009765625
1701815083501866000,7.629865966796875,-0.91790771484375,-0.3670654296875,-0.007781982421875
1701815083511819000,7.639819091796875,-0.919647216796875,-0.367279052734375,-0.0082244873046875
1701815083521771000,7.64977099609375,-0.9244842529296875,-0.36981201171875,-0.010986328125
1701815083531723800,7.659723876953125,-0.9282989501953125,-0.3686065673828125,-0.01177978515625
1701815083541675800,7.66967578125,-0.9318389892578125,-0.3673095703125,-0.0112152099609375
1701815083551628800,7.67962890625,-0.9305419921875,-0.3686065673828125,-0.01165771484375
1701815083561581800,7.689581787109375,-0.924652099609375,-0.3693084716796875,-0.0128021240234375
1701815083571533800,7.699533935546875,-0.9204254150390625,-0.3678741455078125,-0.0130157470703125
1701815083581486800,7.70948681640625,-0.9190826416015625,-0.365325927734375,-0.01190185546875
1701815083591438800,7.71943896484375,-0.922454833984375,-0.3641510009765625,-0.011322021484375
1701815083601391900,7.729391845703125,-0.92864990234375,-0.3640899658203125,-0.009033203125
1701815083611344000,7.73934375,-0.9375152587890625,-0.3622894287109375,-0.00628662109375
1701815083621297000,7.749296875,-0.943023681640625,-0.3600311279296875,-0.0013885498046875
1701815083631249000,7.759248779296875,-0.9478912353515625,-0.3572235107421875,0.0037994384765625
1701815083641201700,7.76920166015625,-0.9495391845703125,-0.3586578369140625,0.002593994140625
1701815083651154000,7.77915380859375,-0.95306396484375,-0.3588714599609375,-0.0009765625
1701815083661107000,7.78910693359375,-0.9552001953125,-0.357574462890625,-0.0036468505859375
1701815083671059000,7.799058837890625,-0.955413818359375,-0.358245849609375,-0.0034942626953125
1701815083681012000,7.809011962890625,-0.9530029296875,-0.35870361328125,-0.005706787109375
1701815083690963700,7.818963623046875,-0.9491729736328125,-0.3599853515625,-0.0099334716796875
1701815083700916700,7.828916748046875,-0.9437713623046875,-0.3608551025390625,-0.0109710693359375
1701815083710868200,7.8388681640625,-0.937713623046875,-0.359405517578125,-0.0102081298828125
1701815083720821200,7.8488212890625,-0.932891845703125,-0.3589324951171875,-0.0132598876953125
1701815083730773200,7.858773193359375,-0.9295501708984375,-0.3577880859375,-0.015594482421875
1701815083740726300,7.868726318359375,-0.9282989501953125,-0.3582000732421875,-0.0178070068359375
1701815083750678300,7.87867822265625,-0.9289093017578125,-0.3575592041015625,-0.0220947265625
1701815083760631300,7.88863134765625,-0.93023681640625,-0.358795166015625,-0.0231170654296875
1701815083770584000,7.898583984375,-0.93243408203125,-0.3610382080078125,-0.0230255126953125
1701815083780536000,7.9085361328125,-0.9312896728515625,-0.35980224609375,-0.0243072509765625
1701815083790489000,7.918489013671875,-0.928741455078125,-0.3602752685546875,-0.0253753662109375
1701815083800441300,7.92844140625,-0.92779541015625,-0.361846923828125,-0.02484130859375
1701815083810394400,7.938394287109375,-0.927947998046875,-0.3629302978515625,-0.0248260498046875
1701815083820346000,7.94834619140625,-0.93060302734375,-0.3637847900390625,-0.0212554931640625
1701815083830299100,7.958299072265625,-0.929290771484375,-0.3658905029296875,-0.0226898193359375
1701815083840251100,7.968251220703125,-0.9307861328125,-0.3672943115234375,-0.022430419921875
1701815083850204200,7.9782041015625,-0.929229736328125,-0.36920166015625,-0.023040771484375
1701815083860156400,7.988156494140625,-0.9250946044921875,-0.3695526123046875,-0.0212860107421875
1701815083870109400,7.998109375,-0.9240875244140625,-0.370086669921875,-0.0195465087890625
1701815083880061200,8.008061279296875,-0.9246978759765625,-0.368316650390625,-0.0184326171875
1701815083890014200,8.01801416015625,-0.9274749755859375,-0.36572265625,-0.0190582275390625
1701815083899966200,8.02796630859375,-0.93341064453125,-0.3627166748046875,-0.0213165283203125
1701815083909919200,8.037919189453126,-0.9372711181640625,-0.3610992431640625,-0.0234527587890625
1701815083919871200,8.047871337890625,-0.944061279296875,-0.361724853515625,-0.0236968994140625
1701815083929824000,8.057823974609375,-0.9479827880859375,-0.3615264892578125,-0.02459716796875
1701815083939776300,8.0677763671875,-0.94873046875,-0.3638153076171875,-0.0225067138671875
1701815083949729300,8.077729248046875,-0.9485321044921875,-0.3654022216796875,-0.021759033203125
1701815083959682300,8.087682373046874,-0.94573974609375,-0.3660736083984375,-0.0216217041015625
1701815083969634300,8.09763427734375,-0.9385833740234375,-0.3685302734375,-0.0216217041015625
1701815083979587300,8.10758740234375,-0.9321441650390625,-0.3715972900390625,-0.018096923828125
1701815083989539000,8.1175390625,-0.9295806884765625,-0.3706207275390625,-0.0162200927734375
1701815083999492000,8.1274921875,-0.9273834228515625,-0.3715667724609375,-0.01434326171875
1701815084009444400,8.1374443359375,-0.928955078125,-0.372650146484375,-0.014129638671875
1701815084019397400,8.1473974609375,-0.9363250732421875,-0.373443603515625,-0.015228271484375
1701815084029349400,8.157349365234374,-0.94219970703125,-0.373504638671875,-0.0143890380859375
1701815084039302100,8.16730224609375,-0.941925048828125,-0.37353515625,-0.01885986328125
1701815084049254100,8.177254150390626,-0.93927001953125,-0.3721771240234375,-0.0203857421875
1701815084059207200,8.187207275390625,-0.9342041015625,-0.3719329833984375,-0.0228729248046875
1701815084069159200,8.1971591796875,-0.9300079345703125,-0.3740386962890625,-0.02301025390625
1701815084079112200,8.2071123046875,-0.92645263671875,-0.3784027099609375,-0.0230712890625
1701815084089064200,8.217064208984375,-0.9224090576171875,-0.3789215087890625,-0.018798828125
1701815084099017200,8.227017333984374,-0.9175567626953125,-0.378936767578125,-0.016265869140625
1701815084108969200,8.23696923828125,-0.911346435546875,-0.382049560546875,-0.0181121826171875
1701815084118922200,8.246922119140624,-0.9077301025390625,-0.3884735107421875,-0.0205841064453125
1701815084128874200,8.256874267578125,-0.9056243896484375,-0.3939208984375,-0.020599365234375
1701815084138827300,8.2668271484375,-0.902435302734375,-0.391876220703125,-0.0219268798828125
1701815084148780000,8.276780029296875,-0.9002685546875,-0.3898773193359375,-0.024932861328125
1701815084158732300,8.286732177734375,-0.8982696533203125,-0.3900604248046875,-0.021636962890625
1701815084168685300,8.296685302734375,-0.8958892822265625,-0.3885040283203125,-0.022705078125
1701815084178637300,8.30663720703125,-0.8961334228515625,-0.387908935546875,-0.02215576171875
1701815084188590300,8.31659033203125,-0.8983154296875,-0.38677978515625,-0.0222930908203125
1701815084198542000,8.3265419921875,-0.9000396728515625,-0.38616943359375,-0.026824951171875
1701815084208495000,8.3364951171875,-0.90289306640625,-0.3862152099609375,-0.0285797119140625
1701815084218447000,8.346447021484375,-0.9039764404296875,-0.387359619140625,-0.0298614501953125
1701815084228400000,8.356400146484376,-0.9031524658203125,-0.38763427734375,-0.031463623046875
1701815084238352400,8.366352294921874,-0.899688720703125,-0.3849945068359375,-0.029815673828125
1701815084248305400,8.376305419921875,-0.8978729248046875,-0.3831024169921875,-0.029296875
1701815084258257200,8.386257080078124,-0.900390625,-0.381591796875,-0.030029296875
1701815084268210200,8.396210205078125,-0.9016265869140625,-0.384368896484375,-0.0263671875
1701815084278162200,8.406162109375,-0.9059600830078125,-0.3842315673828125,-0.0255584716796875
1701815084288115200,8.416115234375,-0.9090423583984375,-0.385528564453125,-0.0221099853515625
1701815084298067500,8.4260673828125,-0.912017822265625,-0.3898773193359375,-0.0235595703125
1701815084308020200,8.436020263671875,-0.915679931640625,-0.3931427001953125,-0.0243377685546875
1701815084317972200,8.44597216796875,-0.9193267822265625,-0.3927001953125,-0.0287322998046875
1701815084327925200,8.45592529296875,-0.9235992431640625,-0.3923187255859375,-0.0324249267578125
1701815084337877200,8.465877197265625,-0.925018310546875,-0.39117431640625,-0.0366973876953125
1701815084347830300,8.475830322265624,-0.9239349365234375,-0.3900299072265625,-0.03826904296875
1701815084357783300,8.485783203125,-0.92626953125,-0.38671875,-0.04010009765625
1701815084367735000,8.495735107421876,-0.931610107421875,-0.38720703125,-0.0402374267578125
1701815084377688000,8.50568798828125,-0.9381256103515625,-0.3894195556640625,-0.035888671875
1701815084387640300,8.515640380859375,-0.9463653564453125,-0.3921051025390625,-0.033538818359375
1701815084397593300,8.52559326171875,-0.9534149169921875,-0.3892059326171875,-0.0314178466796875
1701815084407545300,8.53554541015625,-0.957183837890625,-0.3848419189453125,-0.02874755859375
1701815084417498000,8.545498046875,-0.9581756591796875,-0.3860321044921875,-0.0266876220703125
1701815084427450000,8.5554501953125,-0.962371826171875,-0.3873291015625,-0.0272674560546875
1701815084437403100,8.565403076171876,-0.966033935546875,-0.3847808837890625,-0.0261077880859375
1701815084447355400,8.57535546875,-0.96551513671875,-0.3813323974609375,-0.0222625732421875
1701815084457308400,8.585308349609376,-0.961273193359375,-0.377593994140625,-0.022308349609375
1701815084467260200,8.59526025390625,-0.9567108154296875,-0.379913330078125,-0.0247802734375
1701815084477213200,8.605213134765625,-0.951416015625,-0.385528564453125,-0.0294952392578125
1701815084487165200,8.615165283203124,-0.946380615234375,-0.3883819580078125,-0.0327911376953125
1701815084497118200,8.6251181640625,-0.9420318603515625,-0.39105224609375,-0.0317535400390625
1701815084507070200,8.6350703125,-0.935028076171875,-0.39398193359375,-0.029449462890625
1701815084517023200,8.645023193359375,-0.9290618896484375,-0.400634765625,-0.026611328125
1701815084526975200,8.654975341796876,-0.9264984130859375,-0.404541015625,-0.0220794677734375
1701815084536928300,8.66492822265625,-0.926025390625,-0.40667724609375,-0.019866943359375
1701815084546880300,8.67488037109375,-0.925628662109375,-0.4062957763671875,-0.018096923828125
1701815084556833300,8.684833251953124,-0.92138671875,-0.40850830078125,-0.0218048095703125
1701815084566786300,8.694786376953125,-0.9157257080078125,-0.4144744873046875,-0.02655029296875
1701815084576738000,8.704738037109376,-0.909912109375,-0.418487548828125,-0.027069091796875
1701815084586691000,8.714691162109375,-0.901824951171875,-0.4187469482421875,-0.027984619140625
1701815084596643300,8.724643310546876,-0.8999481201171875,-0.41949462890625,-0.028411865234375
1701815084606596400,8.734596435546875,-0.899749755859375,-0.418914794921875,-0.0298004150390625
1701815084616548400,8.74454833984375,-0.8975982666015625,-0.4187774658203125,-0.029449462890625
1701815084626501400,8.75450146484375,-0.8972015380859375,-0.4189453125,-0.0310821533203125
1701815084636453000,8.764453125,-0.896820068359375,-0.4176025390625,-0.034942626953125
1701815084646406100,8.77440625,-0.89654541015625,-0.42010498046875,-0.037322998046875
1701815084656359200,8.784359130859375,-0.89727783203125,-0.4223785400390625,-0.0354156494140625
1701815084666311200,8.794311279296876,-0.894775390625,-0.4193572998046875,-0.03448486328125
1701815084676264200,8.80426416015625,-0.888580322265625,-0.4178924560546875,-0.0336761474609375
1701815084686217200,8.81421728515625,-0.881744384765625,-0.42193603515625,-0.03411865234375
1701815084696169200,8.824169189453125,-0.877838134765625,-0.424530029296875,-0.0371551513671875
1701815084706122200,8.834122314453126,-0.8762054443359375,-0.42822265625,-0.03961181640625
1701815084716074200,8.84407421875,-0.8756866455078125,-0.43060302734375,-0.0396270751953125
1701815084726027300,8.85402734375,-0.8749542236328125,-0.431488037109375,-0.040374755859375
1701815084735979000,8.86397900390625,-0.8756866455078125,-0.434844970703125,-0.0401763916015625
1701815084745932000,8.87393212890625,-0.87811279296875,-0.4355621337890625,-0.0390777587890625
1701815084755884300,8.88388427734375,-0.882415771484375,-0.43841552734375,-0.0359344482421875
1701815084765837300,8.89383740234375,-0.8845672607421875,-0.438629150390625,-0.033966064453125
1701815084775789300,8.903789306640626,-0.8871917724609375,-0.4375152587890625,-0.0302734375
1701815084785742300,8.913742431640625,-0.8946075439453125,-0.4374847412109375,-0.0272216796875
1701815084795694000,8.923694091796875,-0.9011993408203125,-0.439300537109375,-0.0242462158203125
1701815084805647000,8.933647216796874,-0.906005859375,-0.4437408447265625,-0.021697998046875
1701815084815599000,8.94359912109375,-0.9126434326171875,-0.445343017578125,-0.018890380859375
1701815084825552100,8.95355224609375,-0.91595458984375,-0.4473114013671875,-0.014495849609375
1701815084835504000,8.963504150390625,-0.915985107421875,-0.44879150390625,-0.0161895751953125
1701815084845457200,8.97345703125,-0.9094085693359375,-0.448822021484375,-0.014678955078125
1701815084855409200,8.9834091796875,-0.9007720947265625,-0.4492950439453125,-0.0170135498046875
1701815084865362200,8.993362060546875,-0.8904571533203125,-0.451202392578125,-0.0211029052734375
1701815084875315200,9.003315185546874,-0.8833465576171875,-0.453521728515625,-0.019866943359375
1701815084885267200,9.01326708984375,-0.876312255859375,-0.4534454345703125,-0.0223388671875
1701815084895220200,9.02322021484375,-0.875244140625,-0.45458984375,-0.0240936279296875
1701815084905172200,9.033172119140625,-0.8765716552734375,-0.455963134765625,-0.0252532958984375
1701815084915125200,9.043125244140626,-0.876312255859375,-0.4560394287109375,-0.0247955322265625
1701815084925077200,9.0530771484375,-0.8780670166015625,-0.4573822021484375,-0.0184173583984375
1701815084935030300,9.0630302734375,-0.8830108642578125,-0.4581146240234375,-0.0104217529296875
1701815084944982300,9.072982177734374,-0.8867950439453125,-0.455322265625,-0.00323486328125
1701815084954935000,9.08293505859375,-0.8848724365234375,-0.4586639404296875,-0.0013580322265625
1701815084964887000,9.092886962890624,-0.887115478515625,-0.4660186767578125,-0.0011749267578125
1701815084974840000,9.102840087890625,-0.888214111328125,-0.4729461669921875,0.0002593994140625
1701815084984792300,9.112792236328126,-0.8858184814453125,-0.4761810302734375,0.0019073486328125
1701815084994745300,9.122745361328125,-0.8769989013671875,-0.4782867431640625,0.0045623779296875
1701815085004697000,9.132697021484375,-0.86590576171875,-0.4806060791015625,0.005340576171875
1701815085014650000,9.142650146484375,-0.8623199462890625,-0.4822998046875,0.001922607421875
1701815085024602000,9.15260205078125,-0.863189697265625,-0.4805145263671875,-0.0034637451171875
1701815085034555100,9.16255517578125,-0.867767333984375,-0.475433349609375,-0.0057525634765625
1701815085044507400,9.17250732421875,-0.8743438720703125,-0.4687652587890625,-0.0076904296875
1701815085054460200,9.182460205078126,-0.8756866455078125,-0.466278076171875,-0.007598876953125
1701815085064412200,9.192412109375,-0.8782806396484375,-0.4631195068359375,-0.0093536376953125
1701815085074365200,9.202365234375,-0.8787841796875,-0.4608001708984375,-0.0106201171875
1701815085084317200,9.212317138671875,-0.879302978515625,-0.461700439453125,-0.0112152099609375
1701815085094270200,9.222270263671875,-0.8822174072265625,-0.4641265869140625,-0.0128326416015625
1701815085104223200,9.23222314453125,-0.8824462890625,-0.462921142578125,-0.017852783203125
1701815085114175000,9.242175048828125,-0.8850555419921875,-0.4614105224609375,-0.02587890625
1701815085124128000,9.2521279296875,-0.8878326416015625,-0.4615020751953125,-0.0303497314453125
1701815085134080300,9.262080322265625,-0.888763427734375,-0.462371826171875,-0.032257080078125
1701815085144033300,9.272033203125,-0.8854827880859375,-0.4607696533203125,-0.03277587890625
1701815085153985300,9.2819853515625,-0.87677001953125,-0.4589691162109375,-0.037384033203125
1701815085163938300,9.291938232421876,-0.869659423828125,-0.4643707275390625,-0.04168701171875
1701815085173890000,9.30189013671875,-0.866424560546875,-0.4689483642578125,-0.039794921875
1701815085183843000,9.311843017578125,-0.8692169189453125,-0.4694366455078125,-0.0390167236328125
1701815085193795300,9.32179541015625,-0.8753509521484375,-0.465240478515625,-0.04339599609375
1701815085203748400,9.331748291015625,-0.8871002197265625,-0.4607086181640625,-0.05108642578125
1701815085213700000,9.3417001953125,-0.89208984375,-0.4592132568359375,-0.059173583984375
1701815085223653000,9.351653076171875,-0.8970184326171875,-0.4569854736328125,-0.0640411376953125
1701815085233605000,9.361605224609375,-0.902374267578125,-0.4534454345703125,-0.0685882568359375
1701815085243558100,9.37155810546875,-0.9003448486328125,-0.4473876953125,-0.069366455078125
1701815085253510100,9.38151025390625,-0.8997650146484375,-0.4474029541015625,-0.0690765380859375
1701815085263463200,9.391463134765624,-0.899322509765625,-0.450775146484375,-0.065948486328125
1701815085273415200,9.401415283203125,-0.9024810791015625,-0.451812744140625,-0.062713623046875
1701815085283368200,9.4113681640625,-0.90130615234375,-0.45037841796875,-0.0554046630859375
1701815085293321200,9.4213212890625,-0.893646240234375,-0.4523162841796875,-0.052154541015625
1701815085303273200,9.431273193359376,-0.8822784423828125,-0.4562530517578125,-0.0522918701171875
1701815085313226200,9.441226318359375,-0.870269775390625,-0.4581298828125,-0.0540771484375
1701815085323178000,9.451177978515625,-0.86090087890625,-0.4624481201171875,-0.0550079345703125
1701815085333131000,9.461131103515624,-0.8531341552734375,-0.46435546875,-0.0588531494140625
1701815085343083300,9.471083251953125,-0.852142333984375,-0.4686126708984375,-0.065399169921875
1701815085353036300,9.481036376953124,-0.853057861328125,-0.47186279296875,-0.069671630859375
1701815085362988300,9.49098828125,-0.8517303466796875,-0.4723358154296875,-0.0732421875
1701815085372941300,9.50094140625,-0.8526153564453125,-0.4793548583984375,-0.0709991455078125
1701815085382893000,9.51089306640625,-0.8500213623046875,-0.4837646484375,-0.06390380859375
1701815085392846000,9.52084619140625,-0.8530426025390625,-0.4818572998046875,-0.0572509765625
1701815085402798000,9.530798095703124,-0.852508544921875,-0.4781646728515625,-0.0518951416015625
1701815085412751000,9.540751220703125,-0.85455322265625,-0.4789581298828125,-0.0523529052734375
1701815085422703400,9.550703369140624,-0.85711669921875,-0.478363037109375,-0.0533599853515625
1701815085432656400,9.560656494140625,-0.8646087646484375,-0.47540283203125,-0.05169677734375
1701815085442608000,9.570608154296876,-0.8729248046875,-0.4705810546875,-0.0561981201171875
1701815085452561200,9.58056103515625,-0.884674072265625,-0.466339111328125,-0.058013916015625
1701815085462513200,9.59051318359375,-0.895843505859375,-0.46307373046875,-0.0584869384765625
1701815085472466200,9.600466064453125,-0.8979949951171875,-0.4598541259765625,-0.0534820556640625
1701815085482419200,9.610419189453125,-0.8934326171875,-0.4566650390625,-0.048492431640625
1701815085492371200,9.62037109375,-0.8893280029296875,-0.4537506103515625,-0.04766845703125
1701815085502324200,9.63032421875,-0.8882904052734375,-0.4522247314453125,-0.049591064453125
1701815085512276200,9.640276123046876,-0.88623046875,-0.45172119140625,-0.0522003173828125
1701815085522229200,9.650229248046875,-0.885101318359375,-0.4523773193359375,-0.05255126953125
1701815085532181200,9.66018115234375,-0.887115478515625,-0.45172119140625,-0.05169677734375
1701815085542134300,9.67013427734375,-0.8877716064453125,-0.4502105712890625,-0.0513916015625
1701815085552086000,9.6800859375,-0.8890838623046875,-0.4499359130859375,-0.04925537109375
1701815085562039000,9.6900390625,-0.889678955078125,-0.4486541748046875,-0.0528564453125
1701815085571991300,9.6999912109375,-0.8940582275390625,-0.4492340087890625,-0.0561065673828125
1701815085581944300,9.7099443359375,-0.8983917236328125,-0.450714111328125,-0.0570220947265625
1701815085591896000,9.71989599609375,-0.901947021484375,-0.449310302734375,-0.05615234375
1701815085601849000,9.72984912109375,-0.90411376953125,-0.4478607177734375,-0.0569915771484375
1701815085611801000,9.739801025390625,-0.90545654296875,-0.44580078125,-0.05474853515625
1701815085621754000,9.749754150390626,-0.905517578125,-0.449127197265625,-0.055572509765625
1701815085631706000,9.7597060546875,-0.90582275390625,-0.4521636962890625,-0.058074951171875
1701815085641659100,9.7696591796875,-0.904327392578125,-0.4538421630859375,-0.06146240234375
1701815085651611100,9.779611083984374,-0.9004669189453125,-0.45343017578125,-0.0585784912109375
1701815085661564200,9.789564208984375,-0.897064208984375,-0.4551544189453125,-0.059539794921875
1701815085671516200,9.79951611328125,-0.8925628662109375,-0.4577484130859375,-0.0623779296875
1701815085681469200,9.80946923828125,-0.8873443603515625,-0.4604949951171875,-0.0643768310546875
1701815085691422200,9.819422119140626,-0.8820953369140625,-0.4615478515625,-0.06085205078125
1701815085701374000,9.8293740234375,-0.8780517578125,-0.4586181640625,-0.058258056640625
1701815085711327000,9.839326904296875,-0.878326416015625,-0.4541473388671875,-0.0570526123046875
1701815085721279700,9.84927978515625,-0.8845062255859375,-0.451629638671875,-0.0595245361328125
1701815085731232800,9.859232666015625,-0.894439697265625,-0.4451141357421875,-0.061981201171875
1701815085741184500,9.8691845703125,-0.897979736328125,-0.43792724609375,-0.0658721923828125
1701815085751137500,9.879137451171875,-0.8963165283203125,-0.437042236328125,-0.07220458984375
1701815085761089500,9.889089599609376,-0.8886566162109375,-0.439056396484375,-0.0804901123046875
1701815085771042600,9.89904248046875,-0.885009765625,-0.43994140625,-0.085174560546875
1701815085780994600,9.90899462890625,-0.8791046142578125,-0.4369049072265625,-0.0881500244140625
1701815085790947600,9.918947509765625,-0.88153076171875,-0.4345855712890625,-0.090606689453125
1701815085800899600,9.928899658203125,-0.8875885009765625,-0.43450927734375,-0.0912933349609375
1701815085810852600,9.9388525390625,-0.894622802734375,-0.4360504150390625,-0.0865478515625
1701815085820804600,9.9488046875,-0.89984130859375,-0.4388427734375,-0.0799407958984375
1701815085830757600,9.958757568359376,-0.9015350341796875,-0.443115234375,-0.0740203857421875
1701815085840709600,9.968709716796875,-0.899261474609375,-0.4459381103515625,-0.068878173828125
1701815085850662400,9.978662353515626,-0.891845703125,-0.4458770751953125,-0.0636138916015625
1701815085860614700,9.98861474609375,-0.886505126953125,-0.447906494140625,-0.0602569580078125
1701815085870567700,9.998567626953125,-0.8866729736328125,-0.450927734375,-0.05865478515625
1701815085880520700,10.008520751953125,-0.887664794921875,-0.4520263671875,-0.0565185546875
1701815085890472700,10.01847265625,-0.8875274658203125,-0.45123291015625,-0.05291748046875
1701815085900425700,10.02842578125,-0.884674072265625,-0.450897216796875,-0.0521392822265625
1701815085910377500,10.03837744140625,-0.88336181640625,-0.452484130859375,-0.051361083984375
1701815085920330500,10.04833056640625,-0.8829498291015625,-0.4558563232421875,-0.0489654541015625
1701815085930282500,10.058282470703125,-0.8765869140625,-0.4553375244140625,-0.04931640625
1701815085940235500,10.068235595703126,-0.8681488037109375,-0.4476470947265625,-0.05181884765625
1701815085950187800,10.078187744140624,-0.875030517578125,-0.440155029296875,-0.0587005615234375
1701815085960140800,10.088140869140625,-0.8986358642578125,-0.43890380859375,-0.0639801025390625
1701815085970092500,10.098092529296874,-0.925506591796875,-0.4431610107421875,-0.0623016357421875
1701815085980045600,10.108045654296875,-0.9358367919921875,-0.4428558349609375,-0.0572662353515625
1701815085989997600,10.11799755859375,-0.9374542236328125,-0.4412078857421875,-0.05657958984375
1701815085999950600,10.12795068359375,-0.9311065673828125,-0.4407806396484375,-0.052154541015625
1701815086009902600,10.137902587890625,-0.9232177734375,-0.439453125,-0.0532073974609375
1701815086019855600,10.147855712890625,-0.9127960205078125,-0.438140869140625,-0.0585174560546875
1701815086029807600,10.1578076171875,-0.9053955078125,-0.4353179931640625,-0.0678558349609375
1701815086039760600,10.1677607421875,-0.8997802734375,-0.43707275390625,-0.077423095703125
1701815086049712600,10.177712646484375,-0.8925628662109375,-0.44073486328125,-0.083984375
1701815086059665700,10.187665771484374,-0.8865814208984375,-0.4395751953125,-0.089508056640625
1701815086069617400,10.197617431640625,-0.8811492919921875,-0.4359588623046875,-0.09283447265625
1701815086079570400,10.2075703125,-0.87835693359375,-0.436279296875,-0.0924072265625
1701815086089523500,10.2175234375,-0.8773193359375,-0.434783935546875,-0.0939788818359375
1701815086099475700,10.227475830078125,-0.8766326904296875,-0.4348297119140625,-0.0936279296875
1701815086109428700,10.2374287109375,-0.8765716552734375,-0.4356231689453125,-0.0956878662109375
1701815086119380500,10.24738037109375,-0.8781280517578125,-0.436248779296875,-0.095855712890625
1701815086129333500,10.25733349609375,-0.8785247802734375,-0.436737060546875,-0.094970703125
1701815086139285500,10.267285400390625,-0.876617431640625,-0.4360504150390625,-0.0981903076171875
1701815086149238500,10.277238525390626,-0.8769683837890625,-0.435791015625,-0.0950927734375
1701815086159190500,10.2871904296875,-0.8786773681640625,-0.4362945556640625,-0.0952911376953125
1701815086169143600,10.2971435546875,-0.8818206787109375,-0.4315185546875,-0.0909271240234375
1701815086179095600,10.307095458984374,-0.882904052734375,-0.4308013916015625,-0.0911102294921875
1701815086189048600,10.317048583984375,-0.88641357421875,-0.4329071044921875,-0.0898895263671875
1701815086199000600,10.32700048828125,-0.8887176513671875,-0.4339752197265625,-0.08929443359375
1701815086208953600,10.33695361328125,-0.89105224609375,-0.434600830078125,-0.0895843505859375
1701815086218905600,10.346905517578126,-0.892822265625,-0.434906005859375,-0.0886688232421875
1701815086228858400,10.3568583984375,-0.8974609375,-0.4363861083984375,-0.085845947265625
1701815086238810600,10.366810546875,-0.8977203369140625,-0.435211181640625,-0.0823974609375
1701815086248763600,10.376763671875,-0.8946990966796875,-0.4319305419921875,-0.0790557861328125
1701815086258715600,10.386715576171875,-0.8919525146484375,-0.43206787109375,-0.0766143798828125
1701815086268668700,10.396668701171874,-0.888885498046875,-0.436676025390625,-0.0747222900390625
1701815086278620400,10.406620361328125,-0.8874969482421875,-0.4364013671875,-0.0749053955078125
1701815086288573400,10.416573486328126,-0.889556884765625,-0.435455322265625,-0.0728912353515625
1701815086298525700,10.426525634765625,-0.8947906494140625,-0.435638427734375,-0.070281982421875
1701815086308478700,10.436478759765626,-0.9014739990234375,-0.4367218017578125,-0.0727081298828125
1701815086318430700,10.4464306640625,-0.9055633544921875,-0.4376373291015625,-0.0686798095703125
1701815086328383700,10.4563837890625,-0.9110260009765625,-0.436126708984375,-0.0669097900390625
1701815086338336800,10.466336669921875,-0.9159088134765625,-0.434600830078125,-0.06494140625
1701815086348288500,10.47628857421875,-0.91778564453125,-0.4316558837890625,-0.06414794921875
1701815086358241500,10.486241455078124,-0.9193115234375,-0.42828369140625,-0.0652923583984375
1701815086368193500,10.496193603515625,-0.921142578125,-0.4278717041015625,-0.065673828125
1701815086378146600,10.506146484375,-0.9200897216796875,-0.4267730712890625,-0.0666656494140625
1701815086388098600,10.5160986328125,-0.91595458984375,-0.426544189453125,-0.06591796875
1701815086398051600,10.526051513671876,-0.9108734130859375,-0.4264984130859375,-0.0643310546875
1701815086408003600,10.536003662109374,-0.905303955078125,-0.425323486328125,-0.0670013427734375
1701815086417956600,10.54595654296875,-0.9017486572265625,-0.4247283935546875,-0.0720367431640625
1701815086427908600,10.55590869140625,-0.9011993408203125,-0.4234161376953125,-0.074005126953125
1701815086437861600,10.565861572265625,-0.8995361328125,-0.4260711669921875,-0.0785064697265625
1701815086447813600,10.575813720703126,-0.9030303955078125,-0.427764892578125,-0.0836334228515625
1701815086457766700,10.5857666015625,-0.9041900634765625,-0.4294281005859375,-0.0863800048828125
1701815086467718700,10.59571875,-0.903564453125,-0.4281005859375,-0.0879669189453125
1701815086477671700,10.605671630859375,-0.90240478515625,-0.4268951416015625,-0.0905609130859375
1701815086487623700,10.615623779296875,-0.8991851806640625,-0.42437744140625,-0.08935546875
1701815086497576400,10.625576416015624,-0.8962554931640625,-0.422119140625,-0.0868682861328125
1701815086507528400,10.635528564453125,-0.8955078125,-0.4207763671875,-0.0857696533203125
1701815086517481500,10.6454814453125,-0.895782470703125,-0.4233856201171875,-0.0850830078125
1701815086527433700,10.655433837890625,-0.9000701904296875,-0.4252777099609375,-0.0858001708984375
1701815086537386800,10.66538671875,-0.906402587890625,-0.430267333984375,-0.0838470458984375
1701815086547339800,10.67533984375,-0.9107513427734375,-0.431793212890625,-0.0828857421875
1701815086557291500,10.68529150390625,-0.9147186279296875,-0.4321441650390625,-0.082763671875
1701815086567244500,10.69524462890625,-0.9144744873046875,-0.4344482421875,-0.085479736328125
1701815086577196500,10.705196533203125,-0.9082183837890625,-0.4357147216796875,-0.0854644775390625
1701815086587149600,10.715149658203124,-0.907012939453125,-0.434661865234375,-0.0853729248046875
1701815086597101600,10.7251015625,-0.903564453125,-0.4362640380859375,-0.08843994140625
1701815086607054600,10.7350546875,-0.9003753662109375,-0.433074951171875,-0.08782958984375
1701815086617006600,10.745006591796875,-0.8978118896484375,-0.4293060302734375,-0.0848541259765625
1701815086626959600,10.754959716796876,-0.898712158203125,-0.4244842529296875,-0.0862274169921875
1701815086636911600,10.76491162109375,-0.9008941650390625,-0.4241180419921875,-0.0887908935546875
1701815086646864600,10.77486474609375,-0.904754638671875,-0.422698974609375,-0.08721923828125
1701815086656816400,10.78481640625,-0.9045257568359375,-0.4213104248046875,-0.0846710205078125
1701815086666769400,10.794769287109375,-0.9034576416015625,-0.4238433837890625,-0.081207275390625
1701815086676721700,10.8047216796875,-0.8997344970703125,-0.424652099609375,-0.0819854736328125
1701815086686674700,10.8146748046875,-0.8948974609375,-0.4288177490234375,-0.07696533203125
1701815086696626700,10.824626708984376,-0.8878021240234375,-0.4297637939453125,-0.075286865234375
1701815086706579700,10.834579833984375,-0.8846282958984375,-0.4316864013671875,-0.0756378173828125
1701815086716531000,10.844531005859375,-0.8845977783203125,-0.43365478515625,-0.0735931396484375
1701815086726484000,10.85448388671875,-0.8859100341796875,-0.432830810546875,-0.072113037109375
1701815086736436200,10.864436279296875,-0.8858184814453125,-0.4308929443359375,-0.07232666015625
1701815086746389200,10.87438916015625,-0.88702392578125,-0.4319915771484375,-0.073272705078125
1701815086756341000,10.884341064453125,-0.88629150390625,-0.4328460693359375,-0.074371337890625
1701815086766294000,10.8942939453125,-0.8837890625,-0.435577392578125,-0.0732421875
1701815086776247000,10.9042470703125,-0.879425048828125,-0.4358978271484375,-0.0720062255859375
1701815086786199000,10.914198974609375,-0.8824310302734375,-0.4363861083984375,-0.0740509033203125
1701815086796152000,10.924152099609374,-0.88751220703125,-0.436553955078125,-0.074493408203125
1701815086806104000,10.93410400390625,-0.8932952880859375,-0.4364471435546875,-0.0748291015625
1701815086816057000,10.94405712890625,-0.8967742919921875,-0.4353790283203125,-0.076171875
1701815086826009000,10.954009033203125,-0.8962249755859375,-0.434051513671875,-0.0742950439453125
1701815086835962000,10.963962158203126,-0.8960723876953125,-0.4349365234375,-0.07501220703125
1701815086845914000,10.9739140625,-0.893463134765625,-0.4351959228515625,-0.07672119140625
1701815086855867100,10.9838671875,-0.8918304443359375,-0.4356689453125,-0.075653076171875
1701815086865819000,10.99381884765625,-0.8918304443359375,-0.435211181640625,-0.075958251953125
1701815086875772000,11.00377197265625,-0.894866943359375,-0.435272216796875,-0.0762176513671875
1701815086885724200,11.01372412109375,-0.8970947265625,-0.4350128173828125,-0.07427978515625
1701815086895677200,11.02367724609375,-0.9022674560546875,-0.4371795654296875,-0.075225830078125
1701815086905629200,11.033629150390626,-0.908447265625,-0.43402099609375,-0.0741729736328125
1701815086915582000,11.04358203125,-0.90753173828125,-0.4297027587890625,-0.0744476318359375
1701815086925534000,11.053533935546875,-0.906524658203125,-0.4268646240234375,-0.0767974853515625
1701815086935487000,11.063487060546874,-0.9046478271484375,-0.423858642578125,-0.076934814453125
1701815086945439000,11.07343896484375,-0.9027557373046875,-0.4248809814453125,-0.081512451171875
1701815086955392000,11.08339208984375,-0.898895263671875,-0.42828369140625,-0.08258056640625
1701815086965344000,11.093343994140625,-0.89447021484375,-0.4310302734375,-0.082275390625
1701815086975297000,11.103297119140626,-0.892852783203125,-0.4320068359375,-0.0799407958984375
1701815086985249000,11.1132490234375,-0.8910675048828125,-0.4299468994140625,-0.0774383544921875
1701815086995202000,11.1232021484375,-0.8906097412109375,-0.430877685546875,-0.077178955078125
1701815087005154000,11.133154052734374,-0.8938751220703125,-0.43182373046875,-0.0770111083984375
1701815087015107000,11.143107177734375,-0.896209716796875,-0.4277496337890625,-0.078277587890625
1701815087025059800,11.153059814453124,-0.895172119140625,-0.4270477294921875,-0.0797882080078125
1701815087035012000,11.16301220703125,-0.89215087890625,-0.42840576171875,-0.076507568359375
1701815087044965000,11.172965087890624,-0.8909759521484375,-0.4268646240234375,-0.0787200927734375
1701815087054917000,11.182917236328125,-0.8919219970703125,-0.4266815185546875,-0.077728271484375
1701815087064870100,11.1928701171875,-0.8932952880859375,-0.4291534423828125,-0.0752716064453125
1701815087074822000,11.20282177734375,-0.8940277099609375,-0.4303131103515625,-0.07269287109375
1701815087084775000,11.21277490234375,-0.8961181640625,-0.4293060302734375,-0.07281494140625
1701815087094727000,11.222726806640624,-0.8987274169921875,-0.4295501708984375,-0.06915283203125
1701815087104680000,11.232679931640625,-0.9006805419921875,-0.42864990234375,-0.0699920654296875
1701815087114632200,11.242632080078126,-0.9051513671875,-0.4282684326171875,-0.06817626953125
1701815087124585200,11.252585205078125,-0.9078521728515625,-0.430450439453125,-0.0718231201171875
1701815087134537000,11.262536865234376,-0.9119415283203125,-0.4306793212890625,-0.0713348388671875
1701815087144490000,11.272489990234375,-0.9136505126953125,-0.430999755859375,-0.0683135986328125
1701815087154442000,11.28244189453125,-0.9139862060546875,-0.4280853271484375,-0.067047119140625
1701815087164395000,11.29239501953125,-0.9137115478515625,-0.42724609375,-0.06573486328125
1701815087174347300,11.30234716796875,-0.9144744873046875,-0.4298858642578125,-0.0668487548828125
1701815087184300000,11.312300048828124,-0.913543701171875,-0.430450439453125,-0.0672607421875
1701815087194252000,11.322251953125,-0.9114227294921875,-0.4283447265625,-0.0677490234375
1701815087204205000,11.332205078125,-0.9105682373046875,-0.42626953125,-0.065185546875
1701815087214157000,11.342156982421875,-0.9076690673828125,-0.4247283935546875,-0.0648040771484375
1701815087224110000,11.352110107421876,-0.906585693359375,-0.4270172119140625,-0.0670318603515625
1701815087234062000,11.36206201171875,-0.9062652587890625,-0.42822265625,-0.0672607421875
1701815087244015000,11.37201513671875,-0.9066619873046875,-0.4287567138671875,-0.06890869140625
1701815087253967000,11.381967041015624,-0.90521240234375,-0.4294281005859375,-0.0696258544921875
1701815087263920000,11.391920166015625,-0.9013214111328125,-0.430419921875,-0.06866455078125
1701815087273872100,11.4018720703125,-0.8980712890625,-0.43035888671875,-0.06884765625
1701815087283825200,11.4118251953125,-0.8961944580078125,-0.4292755126953125,-0.0681915283203125
1701815087293778000,11.42177783203125,-0.894378662109375,-0.4295196533203125,-0.0718536376953125
1701815087303730000,11.43172998046875,-0.8914642333984375,-0.428192138671875,-0.0691986083984375
1701815087313683000,11.441682861328125,-0.8891143798828125,-0.4293212890625,-0.07073974609375
1701815087323635200,11.45163525390625,-0.8904876708984375,-0.4303131103515625,-0.0688323974609375
1701815087333588200,11.461588134765625,-0.889129638671875,-0.430389404296875,-0.0653533935546875
1701815087343540000,11.4715400390625,-0.891204833984375,-0.431793212890625,-0.0603485107421875
1701815087353493000,11.481492919921875,-0.8908233642578125,-0.4308319091796875,-0.060211181640625
1701815087363445000,11.491445068359376,-0.892669677734375,-0.43182373046875,-0.060791015625
1701815087373398000,11.50139794921875,-0.897125244140625,-0.4337921142578125,-0.0631256103515625
1701815087383350000,11.51135009765625,-0.8995513916015625,-0.434722900390625,-0.06451416015625
1701815087393303000,11.521302978515624,-0.900787353515625,-0.4350433349609375,-0.067840576171875
1701815087403255000,11.531255126953125,-0.901214599609375,-0.4334259033203125,-0.067474365234375
1701815087413208000,11.5412080078125,-0.8972015380859375,-0.434295654296875,-0.0678863525390625
1701815087423160000,11.55116015625,-0.8900146484375,-0.43438720703125,-0.0680999755859375
1701815087433113000,11.561113037109376,-0.8871612548828125,-0.4379119873046875,-0.069427490234375
1701815087443064800,11.57106494140625,-0.8887939453125,-0.4355621337890625,-0.0717315673828125
1701815087453017900,11.581017822265625,-0.895599365234375,-0.4324493408203125,-0.0736236572265625
1701815087462970000,11.59097021484375,-0.903106689453125,-0.430938720703125,-0.0730133056640625
1701815087472923100,11.600923095703125,-0.90667724609375,-0.429290771484375,-0.07379150390625
1701815087482875100,11.610875244140624,-0.9082489013671875,-0.4278564453125,-0.0725555419921875
1701815087492828200,11.620828125,-0.9052886962890625,-0.428253173828125,-0.06927490234375
1701815087502780000,11.63077978515625,-0.8989105224609375,-0.4277191162109375,-0.0693511962890625
1701815087512733000,11.64073291015625,-0.8945465087890625,-0.428863525390625,-0.06842041015625
1701815087522685000,11.650684814453125,-0.8917083740234375,-0.4298248291015625,-0.068023681640625
1701815087532638000,11.660637939453125,-0.89013671875,-0.430084228515625,-0.068817138671875
1701815087542590200,11.670590087890625,-0.88916015625,-0.4298858642578125,-0.0708160400390625
1701815087552543200,11.680543212890624,-0.8908538818359375,-0.4308319091796875,-0.0703277587890625
1701815087562496000,11.69049609375,-0.89208984375,-0.4294281005859375,-0.0754241943359375
1701815087572448000,11.700447998046876,-0.8917694091796875,-0.428314208984375,-0.0769500732421875
1701815087582401000,11.710401123046875,-0.8926544189453125,-0.4276275634765625,-0.0798492431640625
1701815087592353000,11.72035302734375,-0.8973236083984375,-0.424774169921875,-0.0812835693359375
1701815087602306000,11.73030615234375,-0.9011688232421875,-0.4238739013671875,-0.0800323486328125
1701815087612258000,11.740258056640625,-0.902435302734375,-0.4239349365234375,-0.0781707763671875
1701815087622211000,11.750211181640625,-0.902130126953125,-0.42578125,-0.0782928466796875
1701815087632163000,11.7601630859375,-0.8994598388671875,-0.4257659912109375,-0.07696533203125
1701815087642116000,11.7701162109375,-0.898345947265625,-0.4289093017578125,-0.076019287109375
1701815087652068000,11.780068115234375,-0.8991241455078125,-0.43096923828125,-0.07562255859375
1701815087662021000,11.790021240234376,-0.89959716796875,-0.4309844970703125,-0.075042724609375
1701815087671972900,11.799972900390625,-0.9031219482421875,-0.432952880859375,-0.0740814208984375
1701815087681926000,11.80992578125,-0.9055938720703125,-0.432525634765625,-0.0763397216796875
1701815087691878100,11.819878173828124,-0.9054107666015625,-0.43231201171875,-0.0769195556640625
1701815087701831200,11.8298310546875,-0.9054412841796875,-0.430389404296875,-0.0768890380859375
1701815087711783000,11.839782958984374,-0.9023590087890625,-0.4278411865234375,-0.075225830078125
1701815087721736400,11.849736328125,-0.900054931640625,-0.426239013671875,-0.0740966796875
1701815087731688400,11.8596884765625,-0.8979949951171875,-0.4276275634765625,-0.072723388671875
1701815087741641500,11.869641357421875,-0.8980865478515625,-0.4281158447265625,-0.07025146484375
1701815087751593500,11.879593505859376,-0.8999481201171875,-0.426605224609375,-0.0695953369140625
1701815087761546500,11.88954638671875,-0.89971923828125,-0.427032470703125,-0.0713043212890625
1701815087771498500,11.89949853515625,-0.90032958984375,-0.4298858642578125,-0.0730743408203125
1701815087781451500,11.909451416015624,-0.899444580078125,-0.4315948486328125,-0.0733184814453125
1701815087791403500,11.919403564453125,-0.898956298828125,-0.431640625,-0.07281494140625
1701815087801356300,11.929356201171874,-0.8983154296875,-0.4312896728515625,-0.0713958740234375
1701815087811308300,11.939308349609375,-0.899322509765625,-0.4306182861328125,-0.067596435546875
1701815087821261300,11.94926123046875,-0.90167236328125,-0.4315032958984375,-0.064056396484375
1701815087831213600,11.959213623046875,-0.902923583984375,-0.4320831298828125,-0.06219482421875
1701815087841166600,11.96916650390625,-0.9055938720703125,-0.4297027587890625,-0.0599517822265625
1701815087851119600,11.97911962890625,-0.9069061279296875,-0.4275665283203125,-0.0614471435546875
1701815087861071400,11.9890712890625,-0.903472900390625,-0.427947998046875,-0.064697265625
1701815087871024400,11.9990244140625,-0.9011383056640625,-0.4314117431640625,-0.06781005859375
1701815087880976400,12.008976318359375,-0.894805908203125,-0.43170166015625,-0.067108154296875
1701815087890929400,12.018929443359376,-0.8905029296875,-0.4307098388671875,-0.0668487548828125
1701815087900881400,12.02888134765625,-0.8893890380859375,-0.4336090087890625,-0.067596435546875
1701815087910834400,12.03883447265625,-0.8871612548828125,-0.4340667724609375,-0.0655059814453125
1701815087920786400,12.048786376953124,-0.8903045654296875,-0.4349822998046875,-0.0664825439453125
1701815087930739500,12.058739501953125,-0.8916473388671875,-0.43280029296875,-0.0667266845703125
1701815087940691500,12.06869140625,-0.8948516845703125,-0.430694580078125,-0.067718505859375
1701815087950644500,12.07864453125,-0.8991241455078125,-0.4288330078125,-0.0682525634765625
1701815087960596200,12.08859619140625,-0.899993896484375,-0.428436279296875,-0.068878173828125
1701815087970549200,12.09854931640625,-0.8990478515625,-0.4283294677734375,-0.0684051513671875
1701815087980501500,12.10850146484375,-0.89752197265625,-0.4309234619140625,-0.06964111328125
1701815087990454500,12.11845458984375,-0.897705078125,-0.4328460693359375,-0.0707244873046875
1701815088000406500,12.128406494140625,-0.8977508544921875,-0.4336090087890625,-0.068634033203125
1701815088010359600,12.138359619140624,-0.89788818359375,-0.4326629638671875,-0.06866455078125
1701815088020311300,12.148311279296875,-0.8970794677734375,-0.4317169189453125,-0.071502685546875
1701815088030264300,12.158264404296874,-0.8964080810546875,-0.4307403564453125,-0.07244873046875
1701815088040216300,12.16821630859375,-0.8959197998046875,-0.4309539794921875,-0.0738525390625
1701815088050169300,12.17816943359375,-0.8980712890625,-0.4286651611328125,-0.0724639892578125
1701815088060121600,12.18812158203125,-0.898895263671875,-0.425750732421875,-0.071624755859375
1701815088070074400,12.198074462890625,-0.897735595703125,-0.4266815185546875,-0.07196044921875
1701815088080026400,12.2080263671875,-0.8998260498046875,-0.4284820556640625,-0.0724334716796875
1701815088089979400,12.2179794921875,-0.898773193359375,-0.4291839599609375,-0.0724639892578125
1701815088099931400,12.227931396484376,-0.8965606689453125,-0.4279327392578125,-0.0742950439453125
1701815088109884400,12.237884521484375,-0.89599609375,-0.4288482666015625,-0.0756683349609375
1701815088119836400,12.24783642578125,-0.8954620361328125,-0.4290924072265625,-0.0731048583984375
1701815088129789400,12.25778955078125,-0.8940277099609375,-0.42803955078125,-0.0729522705078125
1701815088139742500,12.267742431640626,-0.8962554931640625,-0.4283599853515625,-0.07281494140625
1701815088149694500,12.277694580078125,-0.8990631103515625,-0.428741455078125,-0.071136474609375
1701815088159647500,12.2876474609375,-0.89752197265625,-0.427642822265625,-0.0703125
1701815088169599500,12.297599609375,-0.89971923828125,-0.424652099609375,-0.06719970703125
1701815088179552300,12.30755224609375,-0.9016265869140625,-0.4270172119140625,-0.0685577392578125
1701815088189504500,12.31750439453125,-0.904144287109375,-0.4278106689453125,-0.066802978515625
1701815088199457300,12.327457275390625,-0.9029998779296875,-0.4281005859375,-0.064483642578125
1701815088209409500,12.337409423828126,-0.8992919921875,-0.4303131103515625,-0.0654449462890625
1701815088219362600,12.347362548828125,-0.8940887451171875,-0.4304046630859375,-0.066802978515625
1701815088229314300,12.357314208984375,-0.8911285400390625,-0.4311676025390625,-0.0695343017578125
1701815088239267300,12.367267333984374,-0.8898162841796875,-0.4304046630859375,-0.0717620849609375
1701815088249219300,12.37721923828125,-0.892333984375,-0.4317626953125,-0.0720977783203125
1701815088259172400,12.38717236328125,-0.8937530517578125,-0.433807373046875,-0.0712890625
1701815088269124600,12.39712451171875,-0.896209716796875,-0.4331817626953125,-0.07037353515625
1701815088279077600,12.40707763671875,-0.897735595703125,-0.431121826171875,-0.0707244873046875
1701815088289029400,12.417029296875,-0.8991851806640625,-0.4285430908203125,-0.0688934326171875
1701815088298982400,12.426982421875,-0.9011993408203125,-0.4263153076171875,-0.0702362060546875
1701815088308934400,12.436934326171874,-0.9067840576171875,-0.42669677734375,-0.07000732421875
1701815088318887400,12.446887451171875,-0.9136505126953125,-0.4236907958984375,-0.065155029296875
1701815088328839400,12.45683935546875,-0.918060302734375,-0.420501708984375,-0.0654296875
1701815088338792400,12.46679248046875,-0.9188995361328125,-0.4200592041015625,-0.0666046142578125
1701815088348744400,12.476744384765626,-0.9149932861328125,-0.4205474853515625,-0.0726470947265625
1701815088358697500,12.486697509765625,-0.9094390869140625,-0.4217376708984375,-0.0719146728515625
1701815088368649500,12.4966494140625,-0.9012298583984375,-0.4231109619140625,-0.067657470703125
1701815088378602500,12.5066025390625,-0.899078369140625,-0.4228668212890625,-0.069183349609375
1701815088388554200,12.51655419921875,-0.8948211669921875,-0.42578125,-0.0680999755859375
1701815088398507300,12.52650732421875,-0.8943939208984375,-0.4250335693359375,-0.0637359619140625
1701815088408459500,12.53645947265625,-0.8966217041015625,-0.4258575439453125,-0.0676422119140625
1701815088418412500,12.54641259765625,-0.902191162109375,-0.42657470703125,-0.06640625
1701815088428364500,12.556364501953125,-0.90582275390625,-0.4236907958984375,-0.0681915283203125
1701815088438317600,12.566317626953126,-0.910247802734375,-0.4218292236328125,-0.07257080078125
1701815088448269300,12.576269287109374,-0.91229248046875,-0.4236602783203125,-0.0712432861328125
1701815088458222300,12.586222412109375,-0.9103546142578125,-0.4219207763671875,-0.0694427490234375
1701815088468175400,12.59617529296875,-0.90631103515625,-0.420318603515625,-0.0712738037109375
1701815088478127400,12.60612744140625,-0.902008056640625,-0.42352294921875,-0.0662689208984375
1701815088488080400,12.616080322265624,-0.8980560302734375,-0.42547607421875,-0.067047119140625
1701815088498032400,12.626032470703125,-0.896240234375,-0.427459716796875,-0.0670166015625
1701815088507985400,12.6359853515625,-0.8987884521484375,-0.428985595703125,-0.0655975341796875
1701815088517937400,12.6459375,-0.899505615234375,-0.4298248291015625,-0.0661163330078125
1701815088527890400,12.655890380859375,-0.90203857421875,-0.427886962890625,-0.0668487548828125
1701815088537842400,12.665842529296874,-0.903228759765625,-0.4268341064453125,-0.06634521484375
1701815088547795500,12.67579541015625,-0.902435302734375,-0.4247283935546875,-0.0662689208984375
1701815088557747500,12.68574755859375,-0.9023895263671875,-0.42279052734375,-0.06610107421875
1701815088567700500,12.695700439453125,-0.90301513671875,-0.423065185546875,-0.06500244140625
1701815088577652500,12.705652587890626,-0.90606689453125,-0.4217071533203125,-0.06414794921875
1701815088587605500,12.71560546875,-0.9082183837890625,-0.4226531982421875,-0.0645599365234375
1701815088597557200,12.72555712890625,-0.9079742431640625,-0.421661376953125,-0.0645904541015625
1701815088607510300,12.73551025390625,-0.9063262939453125,-0.4215240478515625,-0.066162109375
