time,seconds_elapsed,z,y,x
1701815075899377000,0.027376953125,-0.01669803682267666,0.016769202362746,0.5042572069583461
1701815075909330000,0.037329833984375,-0.4742553423285484,0.24687698482759296,0.5376499196028337
1701815075919282000,0.047281982421875,0.05022212076187133,0.3320320699458942,0.9700066232807933
1701815075929235000,0.05723486328125,0.005250760135054588,0.05562229930497706,1.3298437053993344
1701815075939186700,0.067186767578125,-0.37489889604151244,0.014492233874090016,0.8052947114426642
1701815075949139700,0.0771396484375,-0.7531091085880994,-0.07517609088495374,0.47671004200428724
1701815075959092000,0.087092041015625,-0.9588000234812497,-0.08039389859847725,0.4772412262715399
1701815075969045000,0.097044921875,-1.0587515130519867,-0.12744623021781443,0.4573144001280889
1701815075978997000,0.1069970703125,-1.0117799185186624,0.0844482154905796,0.9238415228247642
1701815075988950000,0.116949951171875,-1.0804676702976226,0.1989635793995112,0.5452121350180358
1701815075998901800,0.12690185546875,-1.3800029900580644,0.3779625944610685,0.22568528984747827
1701815076008854800,0.136854736328125,-1.3944646461308001,0.4174480710227042,0.07857230919450521
1701815076018807000,0.14680712890625,-1.245872752031684,0.2155409855172038,-0.2877289274368435
1701815076028760000,0.156760009765625,-0.8581646432995795,0.30727928495071827,-0.23035759250745175
1701815076038712000,0.166712158203125,-0.7737035683274268,0.6635447921928018,0.21177827198281882
1701815076048664800,0.176664794921875,-0.9184399560421704,0.582287043306604,0.02768485639169812
1701815076058616800,0.186616943359375,0.08021510796546935,0.7505336320769042,-0.6291171104773878
1701815076068569900,0.19656982421875,0.22439035466611384,0.7690315579283982,-0.9058253891408443
1701815076078521900,0.20652197265625,0.7144657819390297,0.2873657201476395,-0.4867794544674456
1701815076088475000,0.216474853515625,2.000259625470638,-0.2736567821383476,-1.7416155574165284
1701815076098427000,0.226427001953125,2.4393220738649366,-0.7569678298428654,-0.9106539783410728
1701815076108380000,0.2363798828125,0.9796966810375451,-0.7103731057979166,-0.013875380617380141
1701815076118332000,0.246331787109375,0.3086760730713606,-0.38912703561931844,0.05869067389965057
1701815076128285000,0.256284912109375,-0.03841887024343014,-0.31218554249703884,-0.26142317737862464
1701815076138238000,0.266238037109375,-0.14856968226730824,-0.6655478756435215,-0.9965940398246049
1701815076148190000,0.27618994140625,0.2469189973384142,-0.23726824867874383,-0.4122806783221662
1701815076158142700,0.286142822265625,0.2575496969461441,0.2069100814245641,0.10881664081066846
1701815076168095000,0.296094970703125,0.2151198374956846,-0.00868643367215991,-0.03965118851736188
1701815076178048000,0.306048095703125,0.003066401833295822,-0.10172112959176301,-0.3816473473884165
1701815076188000000,0.316,-0.40337387989759443,0.087033775004372,-0.4252676587324589
1701815076197953000,0.325953125,-0.7544833195507525,0.15854147957488893,-0.3959592197269201
1701815076207904800,0.33590478515625,-0.8279483687341213,-0.16525595558695494,-0.23054632001258432
1701815076217857800,0.34585791015625,-0.8169353918105363,-0.4285262952022254,-0.3710566144648939
1701815076227809800,0.355809814453125,-0.8059539790689945,-0.2949514260362834,-0.5089391907621175
1701815076237762800,0.3657626953125,-0.9893541516989469,-0.20911869738474487,-0.8042471751511097
1701815076247715000,0.375715087890625,-1.1293985822051762,0.01796155395247042,-0.8759944606311619
1701815076257668000,0.385668212890625,-1.3926011903464792,0.1376823044847697,-0.1314338385492563
1701815076267619800,0.395619873046875,-1.6092711798936128,-0.1271254007656127,-0.16705688579538835
1701815076277572900,0.40557275390625,-1.5418009872108698,-0.1837071562198922,-0.8397779958028346
1701815076287524900,0.41552490234375,-1.5255401727616786,0.3017249022265896,-1.4079244316846131
1701815076297478000,0.425477783203125,-1.1854150684595108,0.6254818227149546,-2.2992118846461174
1701815076307430100,0.43543017578125,-0.9309206674307584,0.6263739492490887,-3.030313744087517
1701815076317383000,0.4453828125,-0.8624240543097257,0.5220399337451904,-3.045568304103613
1701815076327335000,0.4553349609375,-1.0798825638860463,-0.0012213447887683287,-1.891324911238253
1701815076337288000,0.465287841796875,-2.0102999579697847,-0.7785469897706061,-0.6178846455842256
1701815076347241000,0.475240966796875,-2.571218269228935,-1.0026381422944366,0.025316958216577767
1701815076357193000,0.48519287109375,-2.4371885689675805,-0.772076113256067,0.6666558368854224
1701815076367146000,0.49514599609375,-1.5430501104891299,-0.5354923762427642,0.26309344867840406
1701815076377097700,0.50509765625,-0.7970522952109574,-0.05781051179794594,-0.1508271058052778
1701815076387050800,0.51505078125,-0.12966682887673378,0.4454399475369602,-0.4086644605863839
1701815076397003000,0.5250029296875,0.4911030167549848,0.5497343982154503,-0.5611671714536846
1701815076406956000,0.5349560546875,0.7087438971608877,0.34493692503068596,-0.8909544946800917
1701815076416908000,0.544907958984375,0.48725160202383994,0.026472338796779512,-0.9966978655252605
1701815076426860800,0.55486083984375,0.4633773899614811,-0.2997809650845826,-0.8272001076500862
1701815076436812800,0.564812744140625,0.6242933435827493,-0.5118870077170431,-1.0158735445078462
1701815076446765800,0.574765869140625,0.1834831747382879,-0.600049859816581,-0.2501164782054722
1701815076456718000,0.584718017578125,-0.23961072015166282,-0.6403499406967311,0.872030744631961
1701815076466671000,0.594671142578125,-0.5557447080135345,-0.7627382299378513,0.31684104015268383
1701815076476622800,0.604622802734375,-0.8334943124234676,-0.5005580967120826,-0.26868038196526467
1701815076486575900,0.614575927734375,-0.09987141007184981,-0.4542402168471366,-0.6914411724433303
1701815076496528000,0.62452783203125,0.6101245329767465,-0.7534880979683249,-1.1838838403042404
1701815076506481000,0.63448095703125,1.3542571389049292,-0.8862492395985871,-1.6813909519478678
1701815076516434000,0.644433837890625,1.501672974961996,-0.9737039434287696,-1.7744886301010847
1701815076526386000,0.654385986328125,1.3511100730508565,-1.004976960505545,-1.0482634367853403
1701815076536338700,0.664338623046875,0.9664625209331512,-0.7072181488983332,-0.8477990243688225
1701815076546291000,0.674291015625,-0.5055120658576489,-0.4015218222901225,0.39099487531781196
1701815076556244000,0.684243896484375,-1.4297119006007908,-0.4402534117445349,1.8772453863508998
1701815076566196000,0.694196044921875,-1.3521768254995346,-0.5289066777095198,2.0475456927806137
1701815076576149000,0.70414892578125,-1.3337597097992897,-0.34746275371387597,1.4774012880146503
1701815076586100700,0.714100830078125,-1.127580719128251,-0.14359393968135117,0.06790069305449724
1701815076596053800,0.7240537109375,-0.8345756779193878,0.11048749663233756,-1.0951160811141132
1701815076606006000,0.734006103515625,-0.6223883867442608,0.007802052053064107,-2.0485184833355246
1701815076615959000,0.743958984375,-0.31525954311490056,-0.41175665444806214,-2.7277532312870023
1701815076625911000,0.7539111328125,-0.014677929171919821,-0.3611113398380577,-2.7398528344035147
1701815076635864000,0.763864013671875,-0.5302917023271322,-0.22521116952970624,-2.7047891198068856
1701815076645815800,0.77381591796875,-0.94229429436028,-0.3955715355835855,-1.8168109375238417
1701815076655768800,0.783768798828125,-2.112785349932313,-0.7304273211807012,-0.6112289870873093
1701815076665721900,0.793721923828125,-2.8277088125109673,-0.6089847152918577,-0.3586006721913814
1701815076675673900,0.803673828125,-2.1105577370107174,-0.19776772067844867,-0.7399499134160578
1701815076685627000,0.813626953125,-1.6631646826446056,-0.09237389392331243,-1.4268088726356625
1701815076695579000,0.823578857421875,-0.8935060057938098,0.1785088934570551,-1.8379760367579756
1701815076705531000,0.83353076171875,-0.3292442293256521,0.24327143461629747,-1.5539891453936696
1701815076715483000,0.84348291015625,-0.4553162485808134,0.008010287976264954,-1.8232780877113342
1701815076725436000,0.853435791015625,-0.7847375880390405,0.0036287118911743164,-2.2091225945286452
1701815076735388200,0.86338818359375,-1.0671616140007971,0.18137451202124355,-2.3915347790345547
1701815076745341200,0.873341064453125,-1.0270394469708204,0.1687701742529869,-2.3458060241691765
1701815076755293000,0.88329296875,-0.6836480343490838,-0.15511077447384594,-1.0940740247152745
1701815076765246000,0.893245849609375,-0.796322227370739,-0.3267433524206281,0.8088323109842837
1701815076775198000,0.903197998046875,-0.6732172412276267,-0.5485328769385814,1.6920198979899286
1701815076785151000,0.91315087890625,0.38245559503138066,-1.1455568130627274,1.2418845591783523
1701815076795103000,0.92310302734375,1.0100392123311757,-1.2608587242394684,0.23620927767772226
1701815076805055700,0.9330556640625,1.1002391232162714,-0.5183250779405236,-0.11553522674227133
1701815076815008800,0.9430087890625,1.3529501479595898,0.10787059213221073,-0.28839055141704156
1701815076824961000,0.9529609375,1.337832073804736,0.052965866512060165,-0.7445463012956083
1701815076834914000,0.9629140625,1.443024386638403,-0.2920782817527652,-0.959415963422507
1701815076844866000,0.972865966796875,2.1488211244314908,-0.7448080209717154,-1.1880611990541219
1701815076854819000,0.982819091796875,2.066205969586968,-1.228281858022511,-0.6702525462031365
1701815076864770800,0.992770751953125,1.324536538901925,-1.4625684605419635,0.4982593182504177
1701815076874723800,1.002723876953125,0.7664934908181429,-1.2719120331734417,2.1120789552286268
1701815076884676000,1.012676025390625,0.3675222297936678,-0.9206561707869172,3.432474448803067
1701815076894629000,1.022629150390625,0.23997195467948912,-0.7967197022557259,3.1799493020206686
1701815076904581000,1.0325810546875,0.2497632808536291,-0.6810352215021849,2.5386709213674066
1701815076914534000,1.042533935546875,0.46622751869559287,-0.5442709817104041,2.213414446503669
1701815076924486000,1.05248583984375,1.1409797144055367,-0.5557239574864506,0.9775329271323978
1701815076934439000,1.06243896484375,1.7532067726194858,-0.40233080058544873,-0.10333375242017209
1701815076944391000,1.072390869140625,2.114859233596921,-0.24828078721091149,-0.4420387242587283
1701815076954344000,1.082343994140625,2.2467010684251782,-0.34252909670397635,-0.563225273027271
1701815076964296000,1.0922958984375,2.183750983515382,-0.6196349963828921,-0.2933182353438809
1701815076974249000,1.1022490234375,2.3594448195517064,-0.8671366159148514,0.7875465079799294
1701815076984202000,1.112201904296875,2.2733073357999323,-0.9353875837117434,1.27967389934659
1701815076994154000,1.122154052734375,1.8651339466661214,-0.7506200682513415,1.0802513241332024
1701815077004107000,1.13210693359375,1.830941754207015,-0.5928824524052441,0.9880482567321509
1701815077014059000,1.14205908203125,2.09984754242599,-0.6159845841165632,0.6731009944368154
1701815077024011800,1.15201171875,2.3218115467280147,-0.7603877212889492,0.01548957434836775
1701815077033964000,1.161964111328125,2.1843314137518406,-1.020804498104006,-0.8202228890486061
1701815077043917000,1.1719169921875,0.9730366386264562,-1.2298489612087606,-0.14581157919820398
1701815077053869000,1.181869140625,-0.2700578808635473,-1.1876347903355955,0.6539050763837992
1701815077063822000,1.191822021484375,1.081058037406206,-0.5050255975149571,1.0950410431165247
1701815077073773800,1.20177392578125,0.5225649074673653,-1.200372472159937,1.6030432452894747
1701815077083726800,1.211726806640625,0.25368717629909515,-1.4985637569002805,0.9058066844403743
1701815077093678800,1.221678955078125,0.6047475161135196,-1.0963662273056805,0.4302565165283158
1701815077103632000,1.2316318359375,0.9373691129177808,-0.7350891755118966,0.4969438882702961
1701815077113584000,1.241584228515625,0.9182909029603004,-0.5985178644763306,0.6384764019098133
1701815077123537200,1.251537109375,0.8858534452140331,-0.9563185819290578,0.9621665042396634
1701815077133490000,1.261489990234375,1.078609475210309,-1.3601717697761952,1.3016301489584148
1701815077143442000,1.27144189453125,1.2563304331600664,-1.530317470166087,1.3970084853947162
1701815077153395000,1.28139501953125,1.1462684684634208,-1.5570090777367354,0.8305041906967758
1701815077163347000,1.291346923828125,0.7815244712114333,-1.2914856254324316,0.06197976030660793
1701815077173300000,1.301300048828125,0.4760556697487831,-0.9553680032059549,-0.5979848535781725
1701815077183252000,1.311251953125,0.788703569060564,-0.9135062990322709,-1.3155652969390152
1701815077193205000,1.321205078125,0.5229641359180212,-0.8206213137816637,-1.6153364712819456
1701815077203157000,1.331156982421875,0.21957564786076544,-0.4012963429711759,-1.4208682305403053
1701815077213110000,1.341110107421875,-0.41093759315013884,0.1794493161123246,-0.5616373462487012
1701815077223062000,1.35106201171875,-0.19513795669674872,0.7653443207830191,0.4631337904639542
1701815077233015000,1.36101513671875,-0.35711306398212905,0.7555719915702939,0.9013036008674651
1701815077242966800,1.370966796875,-1.9384230547606944,-0.1862455521237105,-0.25630484798420217
1701815077252919800,1.380919921875,-1.6399048030883072,0.3182819962086156,-0.8369601619031279
1701815077262872000,1.3908720703125,-0.6743009448111057,0.9063295392706989,-0.9055491294827311
1701815077272825000,1.4008251953125,-0.3038549365252256,0.25092384906560183,-1.116836037752032
1701815077282777000,1.410777099609375,-0.20483517484664915,0.09886705533489584,-0.8201525272261351
1701815077292729900,1.420729736328125,0.2622673731178045,0.25193375676050783,-0.1365125300530344
1701815077302683000,1.430682861328125,0.18044833708703517,0.007740311928465962,0.16183131490051744
1701815077312635000,1.440634765625,-0.33231296924650666,-0.10912841017358005,0.36086116446927186
1701815077322588000,1.450587890625,-0.8787094186782837,0.19933087834194302,0.596736643615365
1701815077332540200,1.4605400390625,-1.3287702309489249,0.44160029630884523,0.6519408636387437
1701815077342493200,1.4704931640625,-1.279658701777458,0.36629268799871206,0.2520208505220711
1701815077352445000,1.48044482421875,-0.7560755571782588,0.26999862495698035,-0.11793386711552739
1701815077362398000,1.49039794921875,-0.2751753700077534,0.32399894908331334,-0.14426862407252192
1701815077372350000,1.500349853515625,0.16703472876250744,0.2143635392356664,-0.24263795901834964
1701815077382303000,1.510302978515625,0.502356232175231,0.09561389875784516,-0.36623131320029495
1701815077392255000,1.5202548828125,0.6061988839656114,-0.09292334449961781,-0.3139903999619186
1701815077402207700,1.530207763671875,0.7357172442823648,-0.2132612040169537,-0.18679653706997632
1701815077412160000,1.540159912109375,0.9231640619546174,-0.2998224661387503,-0.2734007615506649
1701815077422113000,1.550113037109375,0.8037275351911782,-0.32277138004973527,-0.4508277049899101
1701815077432065000,1.56006494140625,0.6457622480690479,-0.2673082898944616,-0.4406799665935337
1701815077442018000,1.57001806640625,0.48970308682918545,-0.3355319312930107,-0.3816284965574741
1701815077451969800,1.5799697265625,0.2349234391182661,-0.2735797713793814,-0.1704451217278838
1701815077461922800,1.5899228515625,-0.005795534536242485,-0.06308540172725915,0.20559110778048634
1701815077471875800,1.599875732421875,-0.020332009410858155,0.09497530859336256,0.4430534177266061
1701815077481828000,1.609828125,0.059613049441576,0.010766747077554463,0.2935382713027298
1701815077491781000,1.619781005859375,0.016341478469967842,-0.08207242626994848,0.19468714418932795
1701815077501733000,1.629733154296875,-0.06973346143960953,-0.07759191985502839,0.237216664621979
1701815077511686000,1.639685791015625,0.038003275179862975,-0.11339286268502473,0.13147811608240006
1701815077521638000,1.649637939453125,0.20738544385135171,-0.04595876422896981,0.05662687323763966
1701815077531591000,1.6595908203125,0.21702420981228351,0.08512406892552972,-0.0019353519767522811
1701815077541543000,1.66954296875,0.0949748702019453,0.20678616278395057,-0.10846753511205315
1701815077551496000,1.679495849609375,0.046886838859319685,0.22619258178249,-0.221152395658195
1701815077561448000,1.689447998046875,0.2093038446933031,0.2718105697497725,-0.20349267419651149
1701815077571401000,1.69940087890625,0.4678016361445188,0.4292997637927532,0.28132921646237374
1701815077581353000,1.70935302734375,0.29289632013738154,0.23886910800412295,0.620900632404536
1701815077591306000,1.719305908203125,0.08448504036962985,0.19411825826019047,0.6323680750973523
1701815077601258000,1.729258056640625,-0.16427987709641456,0.12563567366451026,0.3527456625528633
1701815077611211000,1.7392109375,-0.3427075220108032,0.07482596227303147,0.024535306319594382
1701815077621163000,1.7491630859375,-0.4377531193614006,0.11036080151274799,-0.16395678262189028
1701815077631116000,1.759115966796875,-0.5552729988485574,-0.029239830748736855,-0.23248905157819388
1701815077641068000,1.769068115234375,-0.44327568217515945,-0.06513751195147634,-0.09610372810140251
1701815077651021000,1.77902099609375,-0.22736089490950107,0.03827726981565356,0.14752426486760378
1701815077660974000,1.78897412109375,-0.18919804525375364,0.11301774576231836,0.40467078784033655
1701815077670925800,1.79892578125,-0.32911621903181076,0.05244549589976668,0.5066973301194608
1701815077680878800,1.80887890625,-0.43649347468912597,0.10478417042419313,0.5032860603712499
1701815077690830800,1.818830810546875,-0.49408933908939356,0.2517529933661222,0.3839749135531485
1701815077700783900,1.828783935546875,-0.5309072038769722,0.3203742557801306,0.32867388209179044
1701815077710736100,1.838736083984375,-0.45233810955286025,0.2804154626183212,0.4182292114630341
1701815077720689000,1.84868896484375,-0.27885785791277884,0.3806409468248486,0.6055373513169586
1701815077730641000,1.858640869140625,-0.11423720455467701,0.44213834870830176,0.7372324711509048
1701815077740594000,1.868593994140625,0.015034487524628638,0.34198008451908823,0.8278907933279871
1701815077750546000,1.8785458984375,0.15094751731455325,0.32358532678112384,0.9138654877334833
1701815077760499000,1.8884990234375,0.23318974719345567,0.42944867074415083,1.0452361979186535
1701815077770451000,1.898450927734375,0.14662030176520346,0.38394159580543635,1.0695603457055984
1701815077780404000,1.908404052734375,0.12103051795661449,0.27018428372219205,0.9718971132025122
1701815077790356000,1.91835595703125,0.06861760915219783,0.18819690538719294,0.8701198695093393
1701815077800309000,1.92830908203125,-0.13715806141495704,0.09225815858915448,0.6047985156483948
1701815077810261000,1.938260986328125,-0.34982115340828895,0.09453837848082185,0.16324074330702423
1701815077820214000,1.948214111328125,-0.41233927664160724,0.2391204524166882,-0.25192805767208337
1701815077830166800,1.958166748046875,-0.4080728513687849,0.35698724564537404,-0.4887878716804087
1701815077840118800,1.968118896484375,-0.30173955180644985,0.38805341503843666,-0.5355382246784866
1701815077850071800,1.97807177734375,-0.11044599557816982,0.3902228680320084,-0.4718121869601309
1701815077860024000,1.988024169921875,0.05731880102455616,0.38349794369116424,-0.3357394365638494
1701815077869977000,1.99797705078125,0.06135492467284202,0.4232898558534682,-0.08723506973013281
1701815077879928800,2.0079287109375,-0.08523439743220805,0.5577401196144521,0.07803907910063862
1701815077889881900,2.0178818359375,-0.5501099169969559,0.4533564928151667,-0.03409888815246522
1701815077899833900,2.027833740234375,-1.0482032310307026,0.21788389538154004,-0.37743301762901244
1701815077909787000,2.037786865234375,-1.2039777301102876,0.21672025842964648,-0.8563058636903762
1701815077919739000,2.04773876953125,-1.109236668664217,0.40814489369168877,-1.3117926465325056
1701815077929692000,2.05769189453125,-0.9713117145299911,0.6143691848091781,-1.7200293101608752
1701815077939644000,2.067643798828125,-0.7517687998950481,0.7385067288704216,-1.8806471576184034
1701815077949597000,2.077596923828125,-0.395398078712821,0.7898107996501028,-1.7535713681481777
1701815077959549000,2.087548828125,-0.11134732833206652,0.8206117422357201,-1.4812427658736704
1701815077969502000,2.097501953125,0.09330664472877978,0.6472109855726361,-1.1637133781306446
1701815077979454000,2.107453857421875,0.3856201965421438,0.41411067022830245,-0.9446930260650813
1701815077989406700,2.11740673828125,0.5608505067199469,0.3292307853221893,-0.8530696582481264
1701815077999359700,2.12735986328125,0.48887131218016144,0.29540888748019933,-0.7008424763865768
1701815078009312000,2.13731201171875,0.4764075519263744,0.18936609529703854,-0.5071937353342771
1701815078019265000,2.14726513671875,0.5092834010899067,0.13082768934965133,-0.4808125088870525
1701815078029217000,2.157217041015625,0.4828203415781259,0.12603051820099354,-0.5091572904922068
1701815078039170000,2.167170166015625,0.49780397569835183,0.1443096867352724,-0.5616825736299157
1701815078049121800,2.177121826171875,0.6082943949401378,0.14769962143450974,-0.5985856324829161
1701815078059074800,2.18707470703125,0.6147101072013378,0.13857523473650216,-0.6100014911189675
1701815078069027000,2.197027099609375,0.5166542221188545,0.08796528370082378,-0.5465821812622249
1701815078078980000,2.20697998046875,0.63440031157732,-0.05833820720016956,-0.6495514112189412
1701815078088932000,2.21693212890625,0.644169425919652,-0.09451339017003774,-0.6754442696273326
1701815078098884900,2.226884765625,0.0763572634935379,-0.28497429496645926,-0.5715513489544392
1701815078108836900,2.2368369140625,-0.4757926348984241,-0.5216729270637035,-0.09323957084193825
1701815078118790000,2.246789794921875,-0.6065729779750109,-0.17064473595321178,0.5327054854705929
1701815078128742000,2.256741943359375,-0.6425403634130954,0.0967307739585638,0.8765079631112516
1701815078138695000,2.26669482421875,-0.6631061815798283,-0.054772623673081396,0.8493471305936574
1701815078148648000,2.27664794921875,-0.4352589644581079,-0.0807034760043025,0.572643674235791
1701815078158600000,2.286599853515625,-0.07347849318683147,0.1677379085958004,0.343836233779788
1701815078168553000,2.296552978515625,0.1767693563133478,0.11385229689031838,0.286241976814717
1701815078178505000,2.3065048828125,0.4694903198838234,-0.04663286409825086,0.2234301313318312
1701815078188458000,2.3164580078125,0.6464005459725857,-0.08766863884180784,0.07668021183758973
1701815078198410000,2.326409912109375,0.738626409727335,-0.1514265330031514,-0.03147986476048827
1701815078208362800,2.33636279296875,0.9491507361263036,-0.21270108591616152,-0.14212722812965511
1701815078218315000,2.34631494140625,1.2223644506722688,-0.23620032718628645,-0.2880241840563714
1701815078228268000,2.35626806640625,1.1908914540439843,-0.38851884059309955,-0.5302561926223337
1701815078238220000,2.366219970703125,0.9962900884419679,-0.4878419691324234,-0.421602341157943
1701815078248173000,2.376173095703125,0.7995330061107874,-0.35017771176099777,-0.11703823345005511
1701815078258124800,2.386124755859375,0.6428688647150993,-0.11792699898332357,0.15223843390792607
1701815078268077800,2.396077880859375,0.4656576098531484,0.07094020688086748,0.41667745197638867
1701815078278029800,2.40602978515625,0.25738895342648027,0.1306479488685727,0.5442500850528478
1701815078287982800,2.41598291015625,-0.38299920038878915,0.49871553758531806,0.6222248667456209
1701815078297936000,2.425935791015625,-1.7456278617978096,0.8996198124989867,0.6756679953806102
1701815078307888000,2.43588818359375,-1.7008447172194718,0.33970454080253837,0.3296142316818237
1701815078317841000,2.4458408203125,-1.6694336799114942,0.46006753476113077,0.32827377685829995
1701815078327793000,2.45579296875,-1.1644979526370762,0.48712505303472275,0.24115210437476634
1701815078337746000,2.465745849609375,-0.41707448846995826,0.36813451647311446,-0.05802022729218006
1701815078347698000,2.475697998046875,0.05141688350439071,0.3361111924856901,-0.22777181379795072
1701815078357651000,2.48565087890625,0.24641981564462184,0.299063026073575,-0.3429578435100615
1701815078367603000,2.49560302734375,0.046070261779427524,0.3152949066892266,-0.28372765590623017
1701815078377556000,2.505555908203125,-0.06275193198919296,0.21970862659066914,-0.24617636227756737
1701815078387508000,2.515508056640625,0.09420096322000027,0.1434057236328721,-0.18309724416062234
1701815078397461000,2.5254609375,0.2694435483574867,0.22252660662084817,-0.09935250076428055
1701815078407413000,2.5354130859375,0.38647184493541714,0.4109700341150164,-0.03802563314214349
1701815078417366000,2.545365966796875,0.37417993411719797,0.6273024622708558,0.05470452687293291
1701815078427318800,2.55531884765625,0.27017244715392585,0.632565205104649,0.04511223040223122
1701815078437270800,2.565270751953125,0.16688918281197546,0.7806555794224143,0.15739201727882027
1701815078447223800,2.575223876953125,0.08828384813070296,0.9362760569840669,0.2547980601504445
1701815078457176000,2.585176025390625,0.16239713208973408,1.070861929823458,0.48989086448624725
1701815078467129000,2.595129150390625,0.2943149547636509,1.0147738396376371,0.4528166868500411
1701815078477080800,2.605080810546875,0.31073826629817486,0.9153826142981648,0.11752397114038467
1701815078487033900,2.615033935546875,0.26044834099709985,0.7263678166568279,-0.32042978535965083
1701815078496985900,2.62498583984375,0.13212357437908648,0.22370003431439398,-0.9630218789599835
1701815078506939000,2.63493896484375,0.09448562538027763,-0.28692718259990213,-1.5383429557114838
1701815078516891000,2.644890869140625,-0.07377016960978508,-0.6224567758053541,-1.8541392360515891
1701815078526844000,2.654843994140625,-0.08013561298847198,-0.6006272213131189,-1.2243079859554766
1701815078536796000,2.6647958984375,0.05622282248139381,-0.6383633699893951,0.07894742611721157
1701815078546749000,2.6747490234375,-0.301841843137145,-0.8776222079634666,0.46176469406783577
1701815078556701000,2.684700927734375,-0.256628490447998,-0.9678642044246196,0.3421415586911142
1701815078566654000,2.694654052734375,0.18134265557825563,-0.9923568406462668,0.05512114484980702
1701815078576607000,2.70460693359375,0.49543257039189337,-0.8262178916797042,-0.44903892187699673
1701815078586558700,2.714558837890625,0.38543022692799567,-0.45621845811754463,-0.6210743815362453
1701815078596511700,2.72451171875,-0.26086393606066705,-0.04290361444205045,-0.24745456551983952
1701815078606464000,2.734464111328125,-0.5331862547248601,0.04033464073687792,0.06545286151096225
1701815078616417000,2.7444169921875,-0.28704057984650133,-0.128221013982594,-0.18486951453015207
1701815078626369000,2.754369140625,-0.20282558858990668,-0.29137071800529957,-0.08538315825313329
1701815078636322000,2.764322021484375,-0.17458441348969936,-0.2883253589600324,0.2569068689979613
1701815078646273800,2.774273681640625,-0.2375637244939804,0.19060206683278083,0.4283620445512235
1701815078656226800,2.784226806640625,-0.23847733220756054,0.4998375273525715,0.05877192244231701
1701815078666178800,2.7941787109375,-0.390125691267848,0.5252256511092186,-0.28385785815715786
1701815078676131800,2.8041318359375,-0.44632571739554405,0.3533583876237273,-0.13328311967775225
1701815078686084000,2.814083984375,-0.33268881682157514,0.1703106816932559,0.03287541077211499
1701815078696036900,2.824036865234375,-0.15760112998485565,0.07147445988804102,-0.007129121227562427
1701815078705990000,2.833989990234375,0.0540098226070404,-0.07285539285242557,-0.13222820379734038
1701815078715942700,2.843942626953125,0.14279635956287384,-0.05951397298127412,-0.22638430496230721
1701815078725895700,2.853895751953125,0.09973580099344254,0.005434300008416175,-0.2553554017722606
1701815078735847400,2.863847412109375,0.10599252330064773,0.0467620434358716,-0.17680983445420861
1701815078745800400,2.873800537109375,0.1549625981748104,0.07074731465727091,-0.1875000091642141
1701815078755752400,2.88375244140625,0.26881401828229423,0.0823655639976263,-0.19989947201013564
1701815078765705500,2.89370556640625,0.3399403953850269,0.1426280172586441,-0.17448840576931834
1701815078775657700,2.90365771484375,0.20138766474127767,0.20436580376923083,-0.14043182238861918
1701815078785610500,2.913610595703125,-0.09949497797489165,0.22373919728100297,-0.1435845873311162
1701815078795562500,2.9235625,-0.2858966705083847,0.16394582283645867,-0.1101069728821516
1701815078805515500,2.933515625,-0.327802798345685,0.01227203707396984,0.032340573243051764
1701815078815467500,2.943467529296875,-0.21510873157978055,-0.052337505480647084,0.10124167551174759
1701815078825420500,2.953420654296875,-0.07449088509976863,-0.03137158208042383,0.03775543789863586
1701815078835372500,2.96337255859375,0.13895195909440516,0.03223988934755325,-0.05679755362942814
1701815078845325600,2.97332568359375,0.27542437633275985,0.14450199443697928,-0.09902662981078028
1701815078855278600,2.983278564453125,0.21895722370147705,0.1695864590719342,-0.10224339990019797
1701815078865230600,2.993230712890625,0.1296837800115347,0.08273264374434948,-0.07368585232719778
1701815078875183600,3.00318359375,-0.17102525970339774,0.10248889909386634,-0.06442293394133448
1701815078885135600,3.013135498046875,-0.16956980019807816,0.08566460554301739,-0.052867228443175554
1701815078895088400,3.02308837890625,-0.173253457146883,-0.04977262342870235,0.01759834666326642
1701815078905040400,3.033040283203125,-0.43883506937921046,-0.17372312048524616,0.13063669682219622
1701815078914993400,3.042993408203125,-0.5098007029622793,-0.1885313980385661,0.16229907854273914
1701815078924945700,3.052945556640625,-0.44385026719272136,-0.07740677254647016,0.18463322155624626
1701815078934898700,3.062898681640625,-0.2513274614304304,0.013168401391804217,0.11172054555863141
1701815078944850400,3.072850341796875,0.09851648833155631,0.001867255176603794,0.03898556421548128
1701815078954803500,3.082803466796875,0.38343876084983347,0.03205313460379839,0.09604629882574081
1701815078964755500,3.09275537109375,0.4238707244813442,0.05316022004038095,0.043851562816649675
1701815078974708500,3.10270849609375,0.277091432762146,0.0510015807017684,-0.14378157120794058
1701815078984660700,3.11266064453125,0.013809329643845557,0.0703030780211091,-0.21618805124908685
1701815078994613800,3.12261376953125,-0.28889643684625627,0.20740473307371138,-0.2228299734815955
1701815079004566500,3.13256640625,-0.508823966884613,0.26611761880517004,-0.17882789627835152
1701815079014518500,3.1425185546875,-0.49336336290240285,0.1891922000348568,-0.20988281362503766
1701815079024471600,3.152471435546875,-0.32317864567637444,0.11790391036868095,-0.20985914048850535
1701815079034423600,3.162423583984375,-0.12014438277184962,0.0812611098870635,-0.1762090920820832
1701815079044376600,3.17237646484375,0.07912848177254199,0.020003800369799134,-0.07612243182435631
1701815079054328300,3.182328369140625,0.14682079277336596,-0.019712416207790375,0.03743621588163078
1701815079064281300,3.19228125,0.11792612220048904,0.0006678162589669227,0.014050298792868851
1701815079074233600,3.202233642578125,0.12650105832219122,-0.008025777806341648,-0.1241022535521537
1701815079084186600,3.2121865234375,0.1768254704147577,-0.021694822196662425,-0.1542227395929396
1701815079094138600,3.222138671875,0.06060790569782257,0.00422112482637167,-0.08791114236079156
1701815079104091600,3.232091552734375,-0.08545476218461989,0.04830196635425091,0.03426891095712781
1701815079114043400,3.24204345703125,-0.15024550652503965,0.10538023662120104,0.03950206237025559
1701815079123996400,3.251996337890625,-0.1714800177335739,0.09368044647723436,0.011552490627765654
1701815079133948700,3.26194873046875,-0.14112170434892177,0.026885668838024138,0.07951382782831788
1701815079143901700,3.271901611328125,-0.03388824107646942,-0.006719079121947288,0.10756905190236866
1701815079153854700,3.281854736328125,0.0009516016364097595,0.0037710429713129997,0.07384973765201866
1701815079163806500,3.291806396484375,0.0196808520257473,0.06495265690386295,0.011896043368428946
1701815079173759500,3.301759521484375,0.09432721994817256,0.09296645298898219,-0.03146393653899431
1701815079183711500,3.31171142578125,0.22292554281055926,0.03989566479772329,-0.0661654667597264
1701815079193664500,3.32166455078125,0.3217120802551508,-0.008285013264417648,0.02111928733102977
1701815079203616500,3.331616455078125,0.3081453271955252,-0.08655833951234818,0.06989303591549396
1701815079213569500,3.341569580078125,0.23460312112271783,-0.10710253036916255,0.09462086913250387
1701815079223521500,3.351521484375,0.05270166261792183,-0.0715796738281846,0.044220323063805696
1701815079233474600,3.361474609375,-0.21502456042766568,0.012391571800410747,-0.05023315361253917
1701815079243426600,3.371426513671875,-0.33774259307980536,0.08640840964764356,-0.16155644348189233
1701815079253379600,3.381379638671875,-0.3368962053835392,0.11094605405479668,-0.22512137235440313
1701815079263331600,3.39133154296875,-0.25057518175840376,0.1467690625861287,-0.1738056842021644
1701815079273284400,3.401284423828125,-0.0772328772842884,0.13521335708796978,-0.16573869760259985
1701815079283236600,3.411236572265625,0.05096563260555267,0.11781798565089702,-0.12284041692279278
1701815079293189600,3.421189697265625,0.20207506248354912,0.05207710097879171,-0.0497182628929615
1701815079303142700,3.431142578125,0.2878665092766285,0.04254501026272774,0.03820785784125328
1701815079313094700,3.4410947265625,0.34500293947160243,0.08508768243789672,0.03014657033011317
1701815079323047700,3.451047607421875,0.2547527597039938,0.06854132904559374,-0.006212152513116598
1701815079332999400,3.46099951171875,0.16875146955251694,0.08233838372975587,-0.006673413349315524
1701815079342952400,3.470952392578125,0.09740472769737243,0.08515344115048647,-0.05359210865162313
1701815079352904400,3.480904541015625,-0.000678045392036438,0.117088794593513,-0.01139927282743156
1701815079362857500,3.490857421875,-0.013179799568653106,0.06808423292785883,-0.0639998131584376
1701815079372809700,3.500809814453125,-0.01436170282959938,0.02255553067922592,-0.10386420603506266
1701815079382762500,3.510762451171875,-0.028735096096992492,0.02889116344153881,-0.05202003702931106
1701815079392714500,3.520714599609375,-0.05093114581406116,0.0343444604113698,-0.022217603961750865
1701815079402667500,3.53066748046875,-0.1345142689079046,0.043857846426963804,0.02414272680543363
1701815079412619500,3.54061962890625,-0.16382278097867964,0.03416033601611852,0.049316988615691656
1701815079422572500,3.550572509765625,-0.14979308658242224,-0.003513561078906059,0.11058262756988406
1701815079432524500,3.560524658203125,-0.09215864373743533,0.002437456279993057,0.14727240899838506
1701815079442477600,3.5704775390625,-0.00772328772842884,-0.0184825821518898,0.16359109111465514
1701815079452430600,3.5804306640625,0.09291209245324135,-0.041539048090577124,0.20287680732049046
1701815079462382600,3.590382568359375,0.09492167870998382,-0.04908376438170671,0.1938679367609322
1701815079472335600,3.600335693359375,-0.009974866047501564,-0.016584055054187773,0.08021105284485966
1701815079482287600,3.61028759765625,-0.08982230974435806,0.055633624416589735,-0.042967729186825454
1701815079492240400,3.620240478515625,-0.14336568388342857,0.08949936140030622,-0.07790953443683683
1701815079502192400,3.6301923828125,-0.12296294732391834,0.03577273964881897,-0.06691106096263974
1701815079512145400,3.6401455078125,-0.11618658505678177,0.021972470094263553,-0.02001720784064382
1701815079522097700,3.65009765625,-0.19857845253944395,0.04044686893969774,0.042392888440936805
1701815079532050700,3.66005078125,-0.18782909498810768,0.018157295720279215,0.004102722611092031
1701815079542002400,3.67000244140625,-0.16250000794231892,0.01989770964682102,-0.05969243482071906
1701815079551955500,3.67995556640625,-0.09489069904983043,0.04762129061371088,-0.056780529429391026
1701815079561907500,3.689907470703125,-0.020857494589686394,0.06221037245839834,-0.06199563372917473
1701815079571860500,3.699860595703125,0.055823594030737875,0.09389934992492198,-0.04246449237242341
1701815079581812700,3.709812744140625,0.09826982009410858,0.1205851122766733,-0.004122121431306004
1701815079591765800,3.719765869140625,0.04301438134014606,0.07919424048513174,-0.011302096063271164
1701815079601717500,3.729717529296875,-0.013726327535510062,0.015926467928290368,0.04491966697219759
1701815079611670500,3.73967041015625,-0.05358604423701763,0.005010813899338245,0.11801149892900138
1701815079621623600,3.74962353515625,0.008998714491724968,0.02018967833071947,0.13600151179097592
1701815079631575600,3.759575439453125,0.07990764945149421,0.04797872574925422,0.12917469797823578
1701815079641528600,3.769528564453125,0.11990765140652655,0.05703939956128597,0.07764302898775785
1701815079651480300,3.779480224609375,0.19647183564901352,0.08900456362068652,-0.0467148067606613
1701815079661433300,3.789433349609375,0.2640583481878042,0.13697919771671294,-0.10729724922366439
1701815079671385600,3.799385498046875,0.29121874231398104,0.1568266384810209,-0.09909585912209004
1701815079681338600,3.809338623046875,0.2861258030891418,0.10903963591158389,-0.01518240809533745
1701815079691290600,3.81929052734375,0.25195173080861566,0.06080167470425367,0.06748451346904039
1701815079701243600,3.82924365234375,0.2506201899439096,0.08123451414108276,0.04908011111989617
1701815079711195000,3.83919482421875,0.20371932255923747,0.09027852907925844,-0.054104076761752364
1701815079721148000,3.84914794921875,0.17284312278032302,0.13459580971151588,-0.1777853649554774
1701815079731100200,3.85910009765625,0.20496903035938738,0.20887539014816284,-0.2870635223306715
1701815079741053200,3.86905322265625,0.21125439423918724,0.28710195464491844,-0.29230482051763684
1701815079751005000,3.8790048828125,0.2024719528466463,0.3320511034399271,-0.29774178740717466
1701815079760958000,3.8889580078125,0.21510990062355995,0.3142132489323616,-0.23180903342477976
1701815079770910000,3.898909912109375,0.09264730403721332,0.31470658540725704,-0.21926402462832628
1701815079780863000,3.908863037109375,-0.0033966567009687423,0.38552491947412487,-0.1781836070254445
1701815079790816000,3.91881591796875,0.02207154655456543,0.413387908911705,0.05941785566303879
1701815079800768300,3.928768310546875,-0.012808043646812439,0.3118424281477928,0.14054441591762004
1701815079810721300,3.93872119140625,-0.09990589686334132,0.15620120005905627,0.12652363548018036
1701815079820673000,3.948673095703125,-0.08698913214504718,-0.008271569260954856,0.058511298744753
1701815079830626000,3.9586259765625,-0.09926818348169326,-0.09744739779531955,0.11383472470100968
1701815079840578000,3.968578125,-0.049829322052001954,-0.058062312868237494,0.19380564864706246
1701815079850531000,3.978531005859375,-0.0472825601786375,0.038460955819487566,0.1404299226924777
1701815079860482800,3.98848291015625,0.034712416940927505,0.06918547216802835,0.07728701862432062
1701815079870435800,3.998435791015625,0.14411153381466865,0.07264233462363481,0.0660480143925175
1701815079880388000,4.00838818359375,0.23313947831094264,0.03909194719940424,0.08160166695304215
1701815079890341000,4.018341064453125,0.26728081736564635,-0.05284603952467441,0.03297083397060632
1701815079900293000,4.028293212890625,0.12403086881637572,-0.18797025702446699,-0.02273099684398621
1701815079910246100,4.03824609375,-0.23108137673735618,-0.18300182096213102,-0.06578220306318253
1701815079920198000,4.048197998046875,-0.6243827754318714,-0.0926741920441389,-0.22019904045611619
1701815079930151000,4.05815087890625,-0.7982125711619853,-0.02567863113582134,-0.3085569767363369
1701815079940103200,4.068103271484375,-0.8787550113856792,0.05315992777943611,-0.3001861848846078
1701815079950056200,4.07805615234375,-0.7143985619217157,0.1281169690862298,-0.2853133176624775
1701815079960008200,4.08800830078125,-0.3871200797110796,0.17742518987357617,-0.2831018521580845
1701815079969961000,4.0979609375,0.006250292566418647,0.23396862261146306,-0.19151684359014032
1701815079979914000,4.1079140625,0.3110971627384424,0.2889224480703473,-0.08532127199806272
1701815079989866000,4.117865966796875,0.38177988772690297,0.29737229650765656,-0.07741407907009125
1701815079999819000,4.127819091796875,0.27443945694863797,0.1053185695618391,-0.07455898189991712
1701815080009771000,4.13777099609375,0.2656266204178333,-0.12341390596181154,-0.009249766643345356
1701815080019724000,4.14772412109375,0.2961298952311277,-0.20164719246029852,-0.05053966227844357
1701815080029676000,4.157676025390625,0.21139292592704295,-0.21985884871631858,-0.023619360518455503
1701815080039629000,4.167629150390625,0.11462240447998046,-0.16697890692204237,0.028869243870675562
1701815080049581000,4.1775810546875,0.14168518345057962,-0.06722410896718502,0.03443374613001943
1701815080059534000,4.1875341796875,0.33705870246887204,-0.05761924527585506,0.024395313327014445
1701815080069486000,4.197486083984375,0.2915986815422773,-0.11410451808571814,-0.004326631027460098
1701815080079439000,4.207439208984375,0.12616495823562143,-0.23386866936832665,0.024129063606262206
1701815080089391000,4.21739111328125,0.10644435872137546,-0.30801410203129054,0.13513145095817744
1701815080099344100,4.22734423828125,0.06302373466789722,-0.2834858099743724,0.1680302426058799
1701815080109296000,4.237296142578125,-0.13414952724874019,-0.2076736131429672,0.11564027628563343
1701815080119249200,4.247249267578125,-0.27480127599835397,-0.12186784556359052,0.09449388175196945
1701815080129201000,4.257200927734375,-0.24155717804431914,-0.07181172901839017,0.07337079502865672
1701815080139154000,4.26715380859375,-0.08465513623952865,-0.01613105058968067,0.036208939108997584
1701815080149107000,4.27710693359375,0.06656126114428043,0.1235810792222619,-0.09014693858884275
1701815080159059000,4.287058837890625,0.05133855757117271,0.15152531720250845,-0.18719145467169582
1701815080169012000,4.297011962890625,0.02102174524068832,0.1529097572982311,-0.1681309265013784
1701815080178964200,4.306964111328125,0.20269524020850657,0.1465077813014388,-0.07137757538482546
1701815080188917200,4.316917236328125,0.3341653191149235,0.14341566050499677,0.005309212324023246
1701815080198869000,4.326868896484375,0.2213812359780073,0.1461824948698282,0.02776120956353843
1701815080208822000,4.336822021484375,-0.07874328184723854,0.17791998765319586,0.1270455404624343
1701815080218774000,4.34677392578125,-0.2850911993443966,0.23866934764832257,-0.020132322120293974
1701815080228727000,4.35672705078125,-0.29366730450987816,0.09671966804265976,-0.1942331898767501
1701815080238679000,4.366678955078125,-0.23987960022091864,-0.012347148136794566,-0.03232742150053382
1701815080248632000,4.376632080078125,-0.1264104574292898,-0.006508943502604961,0.05418247576020658
1701815080258584000,4.386583984375,0.08497428519129753,-0.06193067873418331,-0.008156199252977966
1701815080268537000,4.396537109375,0.2731704599261284,-0.06344137555807829,0.05278678361810744
1701815080278489000,4.406489013671875,0.3389496307820081,-0.0048310734182596205,0.06262932852283119
1701815080288442000,4.416442138671875,0.30683424459695813,-0.005255728571116924,0.055392509137094016
1701815080298393900,4.426393798828125,0.12088672557175159,0.0029831074640154836,-0.0005886135429143905
1701815080308347000,4.436346923828125,-0.03971241718530655,0.1115469425573945,0.04800444471240043
1701815080318299100,4.446299072265625,-0.1718681402683258,0.35377573625296355,-0.03475684060454368
1701815080328252200,4.456252197265625,-0.2827402523040771,0.6042094637140631,-0.2131735257335007
1701815080338205200,4.466205078125,-0.26331308277845383,0.6998983274042606,-0.15873057240620256
1701815080348157000,4.476156982421875,-0.1773573853343725,0.7448845933392644,-0.015352175171673296
1701815080358110000,4.48610986328125,-0.04658464104235172,0.8552128077566623,0.32521643511429427
1701815080368062000,4.49606201171875,0.11138181512355803,1.0447621506661176,0.6193640704870224
1701815080378015000,4.506014892578125,0.16801847910284995,1.3063465099558234,0.8306783782199024
1701815080387967200,4.51596728515625,0.19908289493024348,1.500977686174214,0.9732034465607255
1701815080397920300,4.525920166015625,0.2721855405420065,1.5000798605516552,0.8972248801864683
1701815080407872000,4.5358720703125,0.34823066934645175,1.354553783763945,0.8363052051257341
1701815080417825000,4.545824951171875,0.3058440645158291,1.1088286723852157,0.5683476575423032
1701815080427777000,4.555777099609375,0.26656243996322154,0.7738955837681889,0.2930442772407085
1701815080437730000,4.56572998046875,0.30466859099566934,0.05151742126941681,-0.11462744598127901
1701815080447682000,4.57568212890625,0.056304071024060244,-0.6075614044904708,-0.8028069862801581
1701815080457635000,4.585635009765625,-0.13713935671448707,-1.381806824609637,-1.449066589412093
1701815080467587000,4.595587158203125,-0.2812520595729351,-2.1575737552076575,-1.8425073965772985
1701815080477540000,4.6055400390625,-0.6127975515782833,-2.7303110990762707,-1.6766380583323537
1701815080487493000,4.6154931640625,-0.03686579558253288,-2.579915370425582,0.23404603522922843
1701815080497445000,4.625445068359375,0.48835810196101664,-1.4361539163470267,1.1819388437163083
1701815080507398100,4.635398193359375,0.3423614850521087,0.05751549264043569,0.678194810444489
1701815080517350000,4.645349853515625,0.1605219858676195,0.5971648058995604,0.128013764440082
1701815080527303000,4.655302978515625,-0.008762567648291588,0.46701311611533164,-0.017422917031124235
1701815080537255200,4.665255126953125,-0.39803485695719715,0.10729600711464882,-0.1236911885332316
1701815080547208200,4.675208251953125,-0.660469403335452,-0.19867431412935255,-0.1804969437354244
1701815080557160200,4.68516015625,-0.8166659272193908,-0.14067220701575278,-0.1358948639455717
1701815080567113200,4.69511328125,-0.9382581707119941,0.0565393410846591,-0.3358352250885218
1701815080577065000,4.70506494140625,-0.9534557398438454,0.23658991102576254,-0.6047284460868686
1701815080587018000,4.71501806640625,-0.7873743662834167,0.3293623027473688,-0.6609719460301101
1701815080596970000,4.724969970703125,-0.5273433739155531,0.22555033835619687,-0.45119441941045224
1701815080606923000,4.734923095703125,-0.27218144888877865,0.06997808385044336,-0.16544692984810097
1701815080616875000,4.744875,-0.04737900629043579,-0.029129356111586093,0.1464492377809249
1701815080626828000,4.754828125,0.1319049631923437,-0.07970452809482813,0.21388335450328885
1701815080636780000,4.764780029296875,0.24740298146307466,-0.03877805894464254,-0.03809245130065828
1701815080646733000,4.774733154296875,0.22653847261071203,0.14807166961729526,-0.31520872624311597
1701815080656685000,4.78468505859375,0.21024784754514694,0.3341433995440602,-0.4365335144385695
1701815080666638000,4.79463818359375,0.4085474831432104,0.33541619595885275,-0.38249800940100104
1701815080676591000,4.804591064453125,0.5397475129365921,0.07783464256972074,-0.10966675483398139
1701815080686543000,4.814543212890625,0.4458645296245813,-0.049014206276834005,0.0853872499063611
1701815080696496000,4.82449609375,0.19033903198242186,0.2579799050569534,0.6265472599893808
1701815080706448100,4.8344482421875,-0.11676467720568179,0.4519166692703962,0.8496671563282608
1701815080716401700,4.844401611328125,-0.15437223106622694,-0.2257125431805849,0.4265374960051849
1701815080726353700,4.854353759765625,0.010376432585716248,-0.5584115891352296,0.17240082237292081
1701815080736306700,4.864306640625,0.17952186989188193,-0.4219789193853736,0.22011779191344974
1701815080746258700,4.8742587890625,0.2907148844450712,-0.23350158962160347,0.3383098350411281
1701815080756211700,4.884211669921875,0.3447866663724184,-0.18482815960645674,0.3287771963357925
1701815080766163700,4.894163818359375,0.33195641089379785,-0.2467544544264674,0.2809937374303117
1701815080776116700,4.90411669921875,0.23653028979301452,-0.37862259273976084,0.22886379201943052
1701815080786068700,4.91406884765625,0.06980535763204097,-0.4476481981709599,0.16997544012321159
1701815080796021800,4.924021728515625,-0.037191374275088306,-0.4864946461766958,0.14217691249027847
1701815080805973800,4.933973876953125,-0.07109013674557209,-0.45573242816627024,0.04396271330723539
1701815080815926800,4.9439267578125,-0.12308102074563503,-0.415920642259717,-0.01680884025339037
1701815080825879600,4.953879638671875,-0.23255144928991794,-0.47001814315021034,0.21364002900039775
1701815080835831600,4.96383154296875,-0.31339550280869005,-0.5082920519649983,0.38697544707600023
1701815080845784600,4.97378466796875,-0.37548809410631656,-0.49667935558259485,0.39355763847790654
1701815080855736800,4.98373681640625,-0.2821592375457287,-0.46104748570919035,0.3638359424963593
1701815080865689900,4.99368994140625,-0.15621698215007782,-0.4602642263770103,0.281660987433698
1701815080875641600,5.0036416015625,0.019244214174151418,-0.392606109906733,0.20686456178240475
1701815080885594600,5.0135947265625,0.14547113173007964,-0.3804956931352615,0.17476183414952828
1701815080895546600,5.023546630859375,0.21845278131067752,-0.401890071080625,0.1498504610591568
1701815080905499600,5.033499755859375,0.3369529040068388,-0.4215300065740943,0.17504673377182334
1701815080915451600,5.04345166015625,0.457771240517497,-0.47271162001788614,0.2423173670281656
1701815080925404700,5.05340478515625,0.4567980115711689,-0.5467205668196082,0.3117507312763482
1701815080935356700,5.063356689453125,0.3849976807296276,-0.6217229085728526,0.4249422261703759
1701815080945309700,5.073309814453125,0.17286065843701362,-0.650918900179863,0.5484181279851124
1701815080955261700,5.08326171875,-0.17804945925176144,-0.6758566498205065,0.5460511796580627
1701815080965214700,5.093214599609375,-0.42158115223944187,-0.6719479519441723,0.5977434825703501
1701815080975167700,5.103167724609375,-0.6329162104994058,-0.5723036286264658,0.6527267533194273
1701815080985119500,5.113119384765625,-0.7446738731980324,-0.41801089253723617,0.6183525553569197
1701815080995071700,5.12307177734375,-0.7454489492237567,-0.31970015591084955,0.4445725170526653
1701815081005023700,5.133023681640625,-0.6197504394561052,-0.24602350980341434,0.2694601524324156
1701815081014976800,5.142976806640625,-0.4324947604417801,-0.1612336412683129,0.1785292421253398
1701815081024928500,5.152928466796875,-0.2768073551237583,-0.11261720213741064,0.10170184036940336
1701815081034881500,5.162881591796875,-0.22107260842025278,-0.12457856582701206,-0.0034414091581478714
1701815081044833500,5.17283349609375,-0.1826958237528801,-0.20064941359460353,-0.12500990644898266
1701815081054786600,5.18278662109375,-0.13872574912309646,-0.33179186798185106,-0.14443561466988175
1701815081064738800,5.19273876953125,-0.07513619726598263,-0.6969122973307966,0.03149809453692287
1701815081074691800,5.20269189453125,0.1144774430513382,-1.0956436121195554,0.29396643358692526
1701815081084644600,5.21264453125,0.3245522721171379,-1.289634736868739,0.5897080236202106
1701815081094596600,5.2225966796875,0.4330594085872173,-1.3573714715331793,0.8641277894876896
1701815081104549600,5.232549560546875,0.24728256995379924,-1.3825637804567814,0.9652791563674807
1701815081114501600,5.242501708984375,-0.17665888167619703,-1.3273536421492695,0.8928094018317758
1701815081124454700,5.25245458984375,-0.8369529284447431,-1.0131398086950183,0.5222551839310675
1701815081134406700,5.26240673828125,-1.7536404878616332,-0.563446368432045,-0.16780469022169708
1701815081144359700,5.272359619140625,-2.5270687463790176,-0.09484978251755237,-0.7007727721512317
1701815081154311700,5.282311767578125,-3.0126328337073325,0.31178660630732774,-1.048670190955326
1701815081164264700,5.2922646484375,-3.1917665810644626,0.6217971428528428,-1.181909617621824
1701815081174216700,5.302216796875,-3.1204134094685316,0.8415271044924855,-1.124343344642222
1701815081184169700,5.312169677734375,-2.6895991494596,0.9276356544107198,-0.9695141635887324
1701815081194121500,5.32212158203125,-2.024610807394981,0.8551680918321013,-0.8640472715973854
1701815081204074500,5.332074462890625,-1.320713181221485,0.596611555930972,-0.7142717937368899
1701815081214027500,5.342027587890625,-0.5392079992324114,0.2546840783819556,-0.5136738180685788
1701815081223979800,5.351979736328125,-0.02798690807819366,-0.04387830469310283,-0.22724256575945764
1701815081233932800,5.361932861328125,0.3720300626069307,-0.11922814470976591,-0.18624368896018711
1701815081243884500,5.371884521484375,0.5276473252981901,-0.08370850303918123,-0.16893449796922505
1701815081253837600,5.381837646484375,0.34601708495020866,-0.029055121831595896,-0.16068349657226352
1701815081263789600,5.39178955078125,-0.19895488463640212,0.062005789797008035,-0.19701129455426708
1701815081273742600,5.40174267578125,-0.609676204687357,0.2628136088237166,-0.18803727611238136
1701815081283694800,5.41169482421875,-0.847445680886507,0.4974278358623385,-0.21298792176721618
1701815081293648000,5.42164794921875,-0.9142442579180001,0.6121034318342805,-0.3166043087873608
1701815081303599600,5.431599609375,-0.8239192593485116,0.6045721595466137,-0.3941088791524991
1701815081313552600,5.441552734375,-0.5572691411018371,0.600446019527316,-0.3918681510210037
1701815081323505700,5.451505615234375,-0.2299520804464817,0.6752776808887719,-0.32153511625304815
1701815081333457700,5.461457763671875,0.09505494970083236,0.7742737694308162,-0.2326213727209717
1701815081343410700,5.47141064453125,0.35706980936229227,0.7494459099054336,-0.162432459131442
1701815081353362700,5.48136279296875,0.5991507190197706,0.5348065494030714,-0.24691846761545164
1701815081363315500,5.4913154296875,0.7827478755265473,0.38912089813947676,-0.34452297393493353
1701815081373267700,5.501267822265625,0.9101192869424819,0.3571396597281098,-0.41074276469778265
1701815081383220700,5.511220703125,0.7179302431792021,0.3653486851468682,-0.5969025382341817
1701815081393172700,5.5211728515625,0.3931874169260263,0.44284372049868104,-0.7444493437271564
1701815081403125800,5.531125732421875,-0.031736031478643414,0.6004021803855896,-0.7485694193318486
1701815081413077500,5.541077392578125,-0.44650867274701594,0.5925812775015831,-0.6673165658164769
1701815081423030500,5.551030517578125,-0.6987585097193717,0.37417087402790783,-0.5547069259310141
1701815081432982800,5.560982666015625,-0.7926999452203511,0.03939326823353767,-0.2801485918430611
1701815081442935800,5.570935791015625,-0.6571288607358932,-0.18237112184315918,0.19849294794676825
1701815081452888800,5.580888916015625,-0.3420674705415964,-0.19956044931411743,0.7723086068376899
1701815081462840600,5.590840576171875,0.1065951653689146,0.06075403617024421,1.3096303539320826
1701815081472793600,5.600793701171875,0.5753858125507831,0.43671267039775846,1.696085978385061
1701815081482745600,5.61074560546875,0.8248854740321636,0.7589622185304761,1.9565889721788465
1701815081492698600,5.62069873046875,0.9303852453798055,0.9572279518589377,2.1167652133487165
1701815081502650600,5.630650634765625,0.9043892188578844,1.043207906961441,2.1274043885238467
1701815081512603600,5.640603759765625,0.8730442325234412,1.1052940685182808,2.096975055729598
1701815081522555600,5.6505556640625,0.8788976347267627,1.2159873168557882,1.9911952983967958
1701815081532508700,5.6605087890625,0.9189058199882507,1.3242577219605445,1.7910002044409512
1701815081542460700,5.670460693359375,1.1021265443980692,1.4148416637271641,1.6033065724007785
1701815081552413700,5.68041357421875,1.443930395567417,1.6018787315547465,1.360199096174538
1701815081562366700,5.69036669921875,1.790944674861431,1.9119173251509665,1.074857867591828
1701815081572318500,5.700318359375,2.049060188996792,2.205255543836951,0.7840384267937391
1701815081582271500,5.710271484375,2.2273054630815983,2.287254028087854,0.4708825048945844
1701815081592223700,5.7202236328125,2.2597750695317984,2.1903590034782887,0.1884126304971054
1701815081602176800,5.7301767578125,2.2049100914001465,2.0174223571956156,-0.07320274498537183
1701815081612128800,5.740128662109375,2.2112316956371068,1.9147709610164165,-0.2610723911795765
1701815081622081800,5.750081787109375,2.2118904518067835,1.8575836774170398,-0.3833240484289825
1701815081632033500,5.760033447265625,2.260637239319086,1.7238912462860345,-0.41720995141789313
1701815081641986600,5.769986572265625,2.36753167989552,1.4708043739676475,-0.437543933590129
1701815081651938600,5.7799384765625,2.583276955813169,1.0838941376149653,-0.5316233893223107
1701815081661891600,5.7898916015625,2.834552979317307,0.6289169117301702,-0.685235011279583
1701815081671843800,5.79984375,2.9546576146006585,0.13413491420149803,-0.8408425562944263
1701815081681796900,5.809796875,3.06081029689908,-0.32922494010329245,-0.9331758990116417
1701815081691749600,5.81974951171875,2.9158500373005865,-0.57039341109097,-0.8957667172674089
1701815081701701600,5.82970166015625,2.461411156076193,-0.5014002466246485,-0.787540151304379
1701815081711654700,5.839654541015625,1.6686194409191608,-0.2929392824962735,-0.6946162953481078
1701815081721606400,5.8496064453125,0.7039087320894003,-0.011956979775428771,-0.5655875451792031
1701815081731559400,5.859559326171875,-0.16305179660618305,0.2478521865352988,-0.529195431523025
1701815081741511700,5.86951171875,-0.8271165940850973,0.42778935922980305,-0.6091638712510467
1701815081751464700,5.879464599609375,-1.2019266427993773,0.44013270797431464,-0.7585163013938814
1701815081761416400,5.88941650390625,-1.2698890029132366,0.49389323199540375,-0.9085347211647778
1701815081771369500,5.899369384765625,-1.3834142598062753,0.6599158611059188,-1.1000256265960633
1701815081781321500,5.909321533203125,-1.5921347516536712,0.8385092179760336,-1.467012726599723
1701815081791274500,5.9192744140625,-1.6897914082854986,1.0652949433460832,-1.7294569175891576
1701815081801226500,5.9292265625,-1.8428373591840266,1.0546370634704827,-1.610585769623518
1701815081811179500,5.939179443359375,-2.028994137045741,0.8383180793181061,-1.2350542747668922
1701815081821131500,5.949131591796875,-2.215615609809756,0.7110878299385309,-0.8689725261051208
1701815081831084500,5.95908447265625,-2.334906006100774,0.5557692579329013,-0.5251962058190256
1701815081841037600,5.96903759765625,-2.3181629610925913,0.39568624800443647,-0.13011827157181688
1701815081850989600,5.978989501953125,-2.183740462121367,0.3239543062239885,0.16634709355821833
1701815081860942600,5.988942626953125,-1.949804280474782,0.3072214903488755,0.3576729263545945
1701815081870894300,5.998894287109375,-1.654070106562972,0.2269169505342841,0.4922936878442764
1701815081880847400,6.008847412109375,-1.3210066112101078,0.182516960054636,0.6284904299464077
1701815081890799600,6.018799560546875,-1.0386258398681878,0.11673282076269388,0.650567529458925
1701815081900752600,6.028752685546875,-0.804530083745718,-0.010606149688363075,0.6233569395154714
1701815081910704600,6.03870458984375,-0.6846212632954121,-0.1380003574579954,0.5905169288503006
1701815081920657700,6.04865771484375,-0.6525444555550813,-0.15545973404198885,0.5298401591673493
1701815081930609400,6.058609375,-0.6683493429303169,-0.006899696385860443,0.5246257489873096
1701815081940562400,6.0685625,-0.6368763463020324,0.17443565266877412,0.4258175842327997
1701815081950514400,6.078514404296875,-0.38437691848278044,0.15798019243031738,0.18307431994276122
1701815081960467500,6.088467529296875,-0.150157243719697,-0.020645605404675006,0.03995276527982205
1701815081970420500,6.09842041015625,-0.0147398884922266,-0.20828005460351703,0.025446327067154925
1701815081980372500,6.10837255859375,0.02083236014842987,-0.3260819659024477,0.05990094473855569
1701815081990325500,6.118325439453125,0.027382512444257736,-0.33005466892570257,0.17546983628841115
1701815082000277500,6.128277587890625,0.016032266390323638,-0.37039077096730466,0.29342710254583504
1701815082010230500,6.13823046875,0.025548282754421232,-0.36384091093242166,0.4387603601751849
1701815082020182500,6.1481826171875,0.0761830759704113,-0.34437662426680327,0.6256104175306856
1701815082030135600,6.158135498046875,0.16664076100885866,-0.31124680034220215,0.7442500948280095
1701815082040087600,6.168087646484375,0.28601591297388074,-0.2509367085471749,0.7874982118587941
1701815082050040600,6.17804052734375,0.417476055008173,-0.18373364236801862,0.7461498640347272
1701815082059992600,6.18799267578125,0.4918313310295343,-0.1820449586287141,0.6592459259551018
1701815082069945600,6.197945556640625,0.5084960501044988,-0.21445319028049706,0.5849465813720598
1701815082079897600,6.207897705078125,0.4839069677710533,-0.25087825635820626,0.4568858359850943
1701815082089850600,6.2178505859375,0.42958033429980275,-0.18900076911598443,0.3618300095014274
1701815082099803400,6.227803466796875,0.38997897627353667,-0.10556582232117652,0.2571967918552458
1701815082109755400,6.23775537109375,0.3630664194285869,-0.04017594304382801,0.17845776605801655
1701815082119708400,6.24770849609375,0.3539969777882099,0.015373802481591701,0.12962099870732052
1701815082129660700,6.25766064453125,0.3649585167855024,0.02348579726666212,0.09121459521981887
1701815082139613700,6.26761376953125,0.39280689317584033,0.032682080157101154,0.069966174216941
1701815082149565400,6.2775654296875,0.4099865760356188,0.0437295438721776,0.05359620030485093
1701815082159518500,6.2875185546875,0.44803778201043604,0.04369768742918968,0.01879926515193656
1701815082169470500,6.297470458984375,0.4853162500470876,0.00007978723794221877,-0.014927794013451784
1701815082179423500,6.307423583984375,0.55366439460814,-0.02366612226963043,-0.05572329372772947
1701815082189375700,6.317375732421875,0.5618757581144571,-0.0304296250551939,-0.11940759292989969
1701815082199328800,6.327328857421875,0.5276508324295283,-0.02427607086151838,-0.20397768123447893
1701815082209280500,6.337280517578125,0.4645914419263601,-0.049888358762860296,-0.27997957368539644
1701815082219233500,6.347233642578125,0.3386456793993711,-0.06488543688654899,-0.29438895158162337
1701815082229185500,6.357185546875,0.20487141520380972,-0.06282675079107285,-0.28826648664595556
1701815082239138600,6.367138671875,0.06987140860557556,-0.04870791680663824,-0.30590834365738556
1701815082249091600,6.377091552734375,0.0010527239233255386,-0.01866027680635452,-0.3024548604689538
1701815082259043300,6.387043212890625,-0.01149520748257637,0.0020581015735864636,-0.3133804148374125
1701815082268996400,6.396996337890625,-0.02605038705766201,0.01731879906952381,-0.3348242214150727
1701815082278948600,6.406948486328125,-0.015543021568655967,0.00691547847688198,-0.3737939304742962
1701815082288901600,6.416901611328125,-0.0099906481385231,0.010659341180324553,-0.3635725057872012
1701815082298853600,6.426853515625,-0.01510755276083946,0.0019204466685652732,-0.3566543238965794
1701815082308806700,6.436806640625,-0.02243745725750923,-0.005972936929762363,-0.34843393683359025
1701815082318758400,6.44675830078125,-0.05628478180170059,-0.012545301057398319,-0.3213477404547855
1701815082328711400,6.45671142578125,-0.11624269915819167,-0.018663199415802953,-0.2752565272188745
1701815082338663700,6.46666357421875,-0.15087386755645274,-0.007284896311163902,-0.25298604229241606
1701815082348616700,6.47661669921875,-0.1330161393046379,0.06569704553037882,-0.23524549241317436
1701815082358568400,6.486568359375,-0.11089900004267692,0.12887830884754656,-0.1791883270885795
1701815082368521500,6.496521484375,-0.07697627217471599,0.17808745317459104,-0.13059718679571525
1701815082378473500,6.506473388671875,-0.029499650728702545,0.18191227215975522,-0.06438822795413435
1701815082388426500,6.516426513671875,-0.011646598652005196,0.19448621478974817,0.03447385894469917
1701815082398379500,6.526379638671875,-0.026600422155857086,0.2108618877902627,0.10112126400247215
1701815082408331500,6.53633154296875,-0.05761982979774475,0.18516601325869558,0.12583203648682684
1701815082418284500,6.546284423828125,-0.12741115890443325,0.08825608334094286,0.13337693544104695
1701815082428236500,6.556236572265625,-0.13808277504444122,0.032653730845451354,0.1077981844831258
1701815082438189600,6.566189453125,-0.1589151351928711,0.014758593192696571,0.10426383634451776
1701815082448141600,6.5761416015625,-0.17070961788296699,0.009377776937186718,0.0555746607709676
1701815082458094600,6.586094482421875,-0.17785773607194422,-0.0027989830687642097,-0.023799356727860866
1701815082468046600,6.596046630859375,-0.12961889808177948,-0.030850773076713082,-0.056531815365329384
1701815082477999400,6.605999267578125,-0.08309621635973453,-0.05732873789668083,-0.07500332813393325
1701815082487951600,6.61595166015625,-0.018633973321318626,-0.0744616590052843,-0.07451514275819063
1701815082497904600,6.625904541015625,0.041003626039624215,-0.08800912284255027,-0.06712218296267092
1701815082507856600,6.635856689453125,0.07389876442551613,-0.08255202648043632,-0.0735827207462862
1701815082517809700,6.6458095703125,0.07378478265702725,-0.03950608095824718,-0.08671144771482794
1701815082527761400,6.655761474609375,0.09118775287866591,0.0063590136379003525,-0.08980966945849359
1701815082537714400,6.66571435546875,0.08145955506861209,0.030900749698281285,-0.09696312140971422
1701815082547667500,6.67566748046875,0.03345160322487354,0.09361498002558946,-0.1120931051980704
1701815082557619500,6.685619384765625,0.009371054935455321,0.14201894544959068,-0.16282047206833958
1701815082567572500,6.695572509765625,-0.041755321189761156,0.17434008333981035,-0.2127346959248185
1701815082577524700,6.705524658203125,-0.09871814838349818,0.1628200336769223,-0.25108766132518645
1701815082587477500,6.7154775390625,-0.1508937413007021,0.1648120842769742,-0.2380923514779657
1701815082597429500,6.725429443359375,-0.11322831977307796,0.15475363159924746,-0.1861083356101066
1701815082607382500,6.735382568359375,-0.07021160034537315,0.12076923667192459,-0.1262125967696309
1701815082617334500,6.74533447265625,0.00012099603116512298,0.05323708466887474,-0.09607231004983185
1701815082627287600,6.75528759765625,0.11369944441616535,0.027428689673542974,-0.025156287762150165
1701815082637239600,6.765239501953125,0.1797761369138956,0.017381927433609962,0.08275923949033022
1701815082647192600,6.775192626953125,0.22730127367675304,0.02924976762086153,0.161816263461858
1701815082657144600,6.78514453125,0.2855132241487503,0.043434360317885876,0.19613310521394015
1701815082667097600,6.79509765625,0.2892477345019579,0.0973147113263607,0.18246150354035198
1701815082677049600,6.805049560546875,0.29822774429321286,0.12403437594771384,0.13950097127929328
1701815082687002600,6.815002685546875,0.24834406170547008,0.1154638237401843,0.09759111711494624
1701815082696955400,6.824955322265625,0.21602526190280913,0.10529664999097585,0.06522409425638616
1701815082706907400,6.834907470703125,0.16511983505189418,0.12700082453787326,0.06019947102740407
1701815082716860700,6.844860595703125,0.10766074877381324,0.1689531296044588,0.03418744321875274
1701815082726813000,6.85481298828125,0.0779167678952217,0.12261603358238934,-0.04506225378066301
1701815082736766000,6.864765869140625,0.03485971645712852,0.06911065336614847,-0.08264759580940008
1701815082746718000,6.874718017578125,0.013119009292125701,0.003456277933716774,-0.12820318606495856
1701815082756671000,6.8846708984375,0.0677694678902626,-0.06285451558083295,-0.14906754878684877
1701815082766622700,6.894622802734375,0.13368132521510123,-0.09646218615025282,-0.13415603005476295
1701815082776575700,6.90457568359375,0.21914836235940455,-0.12890724268108605,-0.12639321403354406
1701815082786528000,6.914528076171875,0.24681612148582935,-0.14687603009194133,-0.11271415970586239
1701815082796480800,6.924480712890625,0.2078612446695566,-0.1174722409531474,-0.10838307169899344
1701815082806432800,6.934432861328125,0.11786065574884413,-0.08859130664467811,-0.0959098860297352
1701815082816385800,6.9443857421875,0.012276713249087332,-0.047100773870944974,-0.12684424573667347
1701815082826337800,6.954337890625,-0.12370821273326874,-0.02625204710960388,-0.2324761920966208
1701815082836290800,6.964290771484375,-0.22710487432181833,-0.03004004121571779,-0.3103811234235763
1701815082846242800,6.974242919921875,-0.3153144881725311,-0.003472352285683155,-0.36984285476095974
1701815082856195800,6.98419580078125,-0.3348725906014442,0.025589783808588982,-0.4324368197094649
1701815082866148900,6.99414892578125,-0.302662511870265,0.02610737794190645,-0.5009119516510516
1701815082876100900,7.004100830078125,-0.29170214191675187,0.06858546044826506,-0.5115829102039336
1701815082886054000,7.014053955078125,-0.25918168206214903,0.09829115514308213,-0.5117561478789896
1701815082896006000,7.024005859375,-0.22491174819171428,0.17844985674619673,-0.5214094538219273
1701815082905959000,7.033958984375,-0.2160615022599697,0.2602572023391723,-0.5243455803390592
1701815082915910700,7.04391064453125,-0.23997253920137881,0.31771190470308064,-0.4992644036397338
1701815082925863700,7.05386376953125,-0.2665367210000753,0.3653627136722207,-0.5190001276578754
1701815082935816000,7.06381591796875,-0.28045126458406444,0.404103947737813,-0.5125705330017953
1701815082945769000,7.07376904296875,-0.25990122850835323,0.4306526397064328,-0.5254064875688403
1701815082955721000,7.083720947265625,-0.28398879106044767,0.4405725606963038,-0.5299995144475251
1701815082965674000,7.093674072265625,-0.27691666071712967,0.422623354768753,-0.5033742501113564
1701815082975625700,7.103625732421875,-0.2874175964653492,0.38199206917285916,-0.45052514184676107
1701815082985578800,7.113578857421875,-0.3021183219909668,0.34254502492547034,-0.3737859663635492
1701815082995530800,7.12353076171875,-0.2947451628744602,0.32012861045598984,-0.2853163133371621
1701815083005483800,7.13348388671875,-0.27891046488285065,0.26938977234363554,-0.19618037842176853
1701815083015436000,7.14343603515625,-0.2474836454838514,0.2526230541989207,-0.07958009799756109
1701815083025389000,7.15338916015625,-0.20995091042518615,0.23739450540691612,-0.03136401982847601
1701815083035341800,7.163341796875,-0.1899456487506628,0.16555968777388333,-0.018124891288019716
1701815083045293800,7.1732939453125,-0.23634382731020448,0.08985416618734597,0.006653247344121337
1701815083055246800,7.183246826171875,-0.3064852850288152,0.03680529756695032,0.017633819835446773
1701815083065198800,7.19319873046875,-0.346262584143877,0.0064484454870223995,-0.002845196830667555
1701815083075152000,7.20315185546875,-0.3399205216407776,-0.006572656388580799,-0.02321509056650102
1701815083085103900,7.213103759765625,-0.3377092753320932,-0.02918400890827179,-0.06773308140262961
1701815083095057000,7.223056884765625,-0.3498673306375742,-0.04389788617640734,-0.07633822999950497
1701815083105009000,7.2330087890625,-0.3225204740285873,-0.08282879759520292,-0.04573423475809395
1701815083114962000,7.2429619140625,-0.3196580703347921,-0.053204059182107445,-0.02807546314448118
1701815083124914000,7.252913818359375,-0.2937964838474989,0.014985972207784653,-0.021878800461441278
1701815083134867000,7.262866943359375,-0.2795779888808727,0.05911240644305944,-0.0008404328795149922
1701815083144818700,7.272818603515625,-0.2814595648437738,0.05684592281579971,0.035392106300778686
1701815083154771700,7.282771728515625,-0.2712742709159851,0.08401391572654247,0.05119016207642853
1701815083164724000,7.292723876953125,-0.2649193489313125,0.13011807977557183,0.0732923229649663
1701815083174677000,7.302677001953125,-0.2654085937529802,0.15082915163189173,0.1128722363444045
1701815083184628700,7.312628662109375,-0.26770342669188973,0.19857289958149194,0.16331183578185737
1701815083194581800,7.322581787109375,-0.22835049046874045,0.22113690582811832,0.20020331379491835
1701815083204534800,7.33253466796875,-0.15876374402344226,0.23538404236733912,0.21495748654082417
1701815083214486800,7.34248681640625,-0.11736030501127243,0.21705431268960237,0.19573639751393346
1701815083224439800,7.352439697265625,-0.05722936917543411,0.17406652709543705,0.23077497766930608
1701815083234391800,7.362391845703125,-0.02904313913285732,0.1443988263234496,0.2603935238036327
1701815083244344800,7.3723447265625,0.008481997141242027,0.08438333356082439,0.3055572469310835
1701815083254296800,7.382296875,0.033736265385150906,0.06515519373863934,0.3537875362886116
1701815083264249900,7.392249755859375,0.01888999390900135,0.033528175592422486,0.3780415779814124
1701815083274201900,7.402201904296875,-0.03520166176259518,0.009454933826625347,0.4157062688566744
1701815083284155000,7.41215478515625,-0.07255436407923697,-0.0081759999319911,0.4473732902197167
1701815083294106600,7.422106689453125,-0.11440554685890673,0.009634966568648814,0.4654502507127821
1701815083304059600,7.4320595703125,-0.10186813684701919,0.008721651116013526,0.4527045682450756
1701815083314012000,7.442011962890625,-0.041055648487806316,-0.01587795261144638,0.4667437976546585
1701815083323965000,7.45196484375,0.0391524452149868,-0.034819092185795306,0.44027631769608705
1701815083333917000,7.4619169921875,0.1421013630360365,-0.05981032557934522,0.39398269548956305
1701815083343870000,7.471869873046875,0.24985154365897178,-0.04910831430107355,0.3406862818488851
1701815083353821700,7.48182177734375,0.30124504628777504,-0.03078033818900585,0.29816978529458865
1701815083363774700,7.491774658203125,0.28148528380692006,-0.02956307135373354,0.2671848644441925
1701815083373726700,7.501726806640625,0.23812486550807951,-0.020053192469477652,0.21471929387077687
1701815083383679700,7.5116796875,0.2301952415525913,0.009779927997291087,0.20586532161198556
1701815083393632800,7.5216328125,0.19965455733835696,0.051532618838548656,0.16842698683850466
1701815083403585000,7.5315849609375,0.16413140853643415,0.061060325640439984,0.15440026985062286
1701815083413537800,7.541537841796875,0.11521978585124015,0.045239656174182886,0.17419468351975081
1701815083423489800,7.55148974609375,0.06557458819448947,0.04699029923379421,0.16431765182353555
1701815083433442800,7.56144287109375,0.003502455163002014,0.03126753718405962,0.13568112073019145
1701815083443394800,7.571394775390625,-0.028971827462315556,0.04652151267826557,0.1345741458689794
1701815083453347800,7.581347900390625,-0.0004985971719026565,0.045891690342128276,0.10847412924962117
1701815083463299800,7.5912998046875,0.009967851784825324,0.030351883643865582,0.09809977902313693
1701815083473252900,7.6012529296875,0.06074351477622986,0.004091068705916404,0.08138946724077686
1701815083483204900,7.611204833984375,0.09681962128579616,0.023046236805617806,0.04515827063419856
1701815083493158000,7.621157958984375,0.12849252440035341,0.028762276364862917,0.055404135642806066
1701815083503110000,7.63110986328125,0.1066343283355236,0.03318769159168005,0.07886378468805924
1701815083513063000,7.64106298828125,0.10550912369787692,0.02091331643015146,0.07688068457944318
1701815083523014700,7.6510146484375,0.06879004310965538,0.017567220872640607,0.06198266464974731
1701815083532967700,7.6609677734375,0.015603811845183372,0.013081015369296073,0.04751435964051634
1701815083542920000,7.670919921875,-0.012704583272337913,0.01776888092458248,0.04901528398906812
1701815083552873000,7.680873046875,-0.03367313702106475,0.014971359160542487,0.038630010509770364
1701815083562826000,7.690825927734375,0.025097616377472876,0.006530278551578521,0.033552506316080685
1701815083572777700,7.70077783203125,0.06071195059418678,0.0037868250623345374,0.011957436433155088
1701815083582730800,7.710730712890625,0.09839315421283244,0.034601942303776737,0.026112748236767947
1701815083592682800,7.720682861328125,0.08888882828652858,0.04498509689122438,0.029568505580676717
1701815083602635800,7.7306357421875,0.034471009400486946,0.04435527455508709,0.046203222243022174
1701815083612588000,7.740588134765625,-0.04360182583928108,0.05534633190780878,0.05997666772273369
1701815083622541000,7.750541015625,-0.10043255108594894,0.078570847889781,0.08672845364855603
1701815083632492800,7.760492919921875,-0.17189619731903075,0.10216361266225575,0.13248515596678478
1701815083642445800,7.77044580078125,-0.19185878889560698,0.09157032245546579,0.1542569158571772
1701815083652397800,7.780397705078125,-0.2113993556678295,0.09617255555391312,0.12348659673868678
1701815083662350800,7.790350830078125,-0.23074352308511734,0.09799304897934198,0.09366128511903807
1701815083672302800,7.800302734375,-0.25272856040000913,0.09547551320046185,0.08520888853161596
1701815083682256000,7.810255859375,-0.23797464338243007,0.09426906002014875,0.07219420726364478
1701815083692207900,7.820207763671875,-0.21036358287930487,0.0941580008611083,0.05208033411549404
1701815083702161000,7.830160888671875,-0.16348317376077173,0.09271832344681025,0.013197600086824968
1701815083712112000,7.840112060546875,-0.10513269160091876,0.0867664293050766,0.033257295362325384
1701815083722065200,7.850065185546875,-0.056205286824703216,0.10270634123682976,0.02314134947685525
1701815083732017200,7.86001708984375,-0.02530395260453224,0.12359978392273187,-0.013761444514663889
1701815083741970200,7.86997021484375,-0.007746668604016304,0.12473609447628259,-0.025455645168060436
1701815083751922200,7.879922119140625,0.009269348126649856,0.12575608517378567,-0.0534810220931191
1701815083761875200,7.889875244140625,-0.01668050116598606,0.1248354631975293,-0.09215782175352796
1701815083771828200,7.899828125,-0.02164484557509422,0.09509995788633822,-0.07328280621794983
1701815083781780200,7.9097802734375,-0.04061141185164451,0.10942279001027345,-0.0992086535804905
1701815083791733200,7.919733154296875,-0.007170914542675018,0.11556669959276913,-0.11153518818751908
1701815083801685000,7.92968505859375,0.00835632493495941,0.11187193672806024,-0.09585843897028826
1701815083811638000,7.939637939453125,0.010486907222867011,0.09273585910350084,-0.09281983845937065
1701815083821590300,7.94959033203125,-0.009446458259224891,0.09330635246783495,-0.06210053714206442
1701815083831543300,7.959543212890625,-0.01789922930598259,0.07663023521602154,-0.07039869301584549
1701815083841495300,7.969495361328125,-0.020494506496191025,0.05983633680343627,-0.07772115399157628
1701815083851448300,7.9794482421875,-0.037791093733906746,0.04133125055879354,-0.07851964742550625
1701815083861400000,7.989400146484375,0.018075754916667935,0.04042553389072418,-0.0757078596740961
1701815083871353000,7.99935302734375,0.019564532169699667,0.029467794285714624,-0.05207485422277823
1701815083881305300,8.009305419921875,0.030196400821208953,0.046885377554595466,-0.03547027697036974
1701815083891258000,8.019258056640625,0.02290682833492756,0.07819704614132643,-0.03326580746234394
1701815083901210400,8.02921044921875,-0.04133271186351776,0.10377864664345979,-0.04724900496890768
1701815083911163400,8.039163330078125,-0.07680676082670689,0.1303989425435662,-0.07055044037830084
1701815083921115100,8.049115234375,-0.13521744874119757,0.11970979074686765,-0.08147855203002691
1701815083931068200,8.059068115234375,-0.1901589992403984,0.12189648713618516,-0.09043463295642286
1701815083941020200,8.069020263671876,-0.2118219649940729,0.10819061786681412,-0.07806856092344969
1701815083950973200,8.07897314453125,-0.21514380289316176,0.09844371535629033,-0.052002190845366565
1701815083960926200,8.08892626953125,-0.19896599055230615,0.10672434470653533,-0.05167962609380483
1701815083970878200,8.098878173828124,-0.15223229642808436,0.08654372646510601,-0.06649610521988943
1701815083980831200,8.108831298828125,-0.08101648747622966,0.06175678347200155,-0.025191176412440834
1701815083990783200,8.118783203125,-0.041319267860054965,0.07540478507429361,0.005575681240484118
1701815084000736300,8.128736328125,-0.026736615756154058,0.0775271840557456,0.02130235228035599
1701815084010688300,8.138688232421876,-0.020585107389092444,0.062355333887040613,0.04551069166790694
1701815084020641300,8.148641357421875,-0.0732370856463909,0.05809943000823259,0.027186661078594625
1701815084030593300,8.15859326171875,-0.15236030672192571,0.0568660888209939,0.032907322014030065
1701815084040546300,8.16854638671875,-0.17469371908307074,0.060867141155898564,0.020441442868392914
1701815084050498300,8.178498291015625,-0.15762567990422247,0.08019435743838549,-0.024855131124798206
1701815084060451300,8.188451416015624,-0.11991057401597499,0.08863865291774273,-0.033442250874638556
1701815084070403000,8.198403076171875,-0.07118892094492912,0.10319120214432477,-0.0392712858216837
1701815084080356000,8.208356201171876,-0.03858370541632175,0.06102087041288614,-0.037830348032061006
1701815084090308000,8.21830810546875,-0.0025450083076953888,0.058228317084908485,0.0010213606706820427
1701815084100261000,8.22826123046875,0.032387773385643956,0.06334609849005937,0.03161757446443662
1701815084110213400,8.23821337890625,0.08215981229245663,0.06254851837158203,0.030942214219830927
1701815084120166400,8.24816650390625,0.1312421153694391,0.015988427248597146,0.012620119859278201
1701815084130118100,8.2581181640625,0.14320084871053695,-0.0397512878909707,0.008260262415651231
1701815084140071200,8.2680712890625,0.15702069974839686,-0.039969899077713485,0.009283942907582969
1701815084150024200,8.278024169921874,0.18949907402694224,-0.002082943753898144,-0.009169285285659134
1701815084159976200,8.28797607421875,0.21007541358768939,-0.0005824760630726814,-0.003038454380445182
1701815084169929200,8.29792919921875,0.22386370044350623,0.025322072783112524,-0.002592665108013898
1701815084179881200,8.307881103515625,0.24436112954914568,0.035732407638430594,0.014671353300660848
1701815084189834200,8.317834228515625,0.21256606135964393,0.06037672729045152,0.009411861869879067
1701815084199786200,8.3277861328125,0.19476210912168024,0.07255407181829214,-0.014411496788077056
1701815084209739300,8.3377392578125,0.16697276944220066,0.08604571381509303,-0.045978911967854946
1701815084219691300,8.347691162109374,0.15081307727992535,0.06753156748116015,-0.06167549839671701
1701815084229644300,8.357644287109375,0.14651625686883926,0.06354220558404922,-0.07928679587310179
1701815084239596000,8.367595947265626,0.17938216916024685,0.08084843743294477,-0.08846665735170245
1701815084249549000,8.377549072265625,0.1865595134437084,0.12277473127543925,-0.08497972855139523
1701815084259501300,8.387501220703125,0.18657938718795775,0.13394260649979114,-0.08749492624271661
1701815084269454300,8.397454345703125,0.15808979028463363,0.12663023765981196,-0.06791590888993815
1701815084279406300,8.40740625,0.13070084809958935,0.1319973176509142,-0.04818889790121466
1701815084289359400,8.417359375,0.10429039555788039,0.10423106658607721,-0.034958226661849764
1701815084299311000,8.42731103515625,0.07348433840572834,0.06778524998128414,-0.018199344763718546
1701815084309264100,8.43726416015625,0.04667524193525314,0.041060616923868656,-0.023834702035877852
1701815084319216000,8.447216064453125,0.003167524120211601,0.031358722598850725,-0.053726110294833776
1701815084329169200,8.457169189453126,-0.03323299203813076,0.03708849842250347,-0.08075005509238689
1701815084339121200,8.46712109375,-0.06779694041907787,0.04007423623502254,-0.1310079595536925
1701815084349074200,8.47707421875,-0.058172787505388256,0.056283320496976375,-0.13995541878221557
1701815084359027200,8.487027099609374,-0.06637246057391166,0.07011661553829908,-0.15299772784262894
1701815084368979200,8.496979248046875,-0.10856383509337901,0.0872910377010703,-0.17267194919819012
1701815084378932200,8.50693212890625,-0.1659954488426447,0.06620353374779224,-0.1306611554100178
1701815084388884200,8.51688427734375,-0.251520353654027,0.04173047900944948,-0.10442370308134705
1701815084398837200,8.526837158203126,-0.32685821097195145,0.043459202498197555,-0.08121526145134121
1701815084408789200,8.536789306640625,-0.3724222767949104,0.0888160553112626,-0.05510941787939518
1701815084418742300,8.5467421875,-0.39944238566756246,0.0908858473226428,-0.028346663034986702
1701815084428694300,8.5566943359375,-0.41239948239624497,0.08976765694767236,-0.03776528343921527
1701815084438647300,8.566647216796875,-0.4713882624596357,0.11061375336050987,-0.031903789260983466
1701815084448599000,8.57659912109375,-0.4790583586961031,0.143808751475811,-0.015677370271738617
1701815084458552000,8.586552001953125,-0.4601847314000129,0.20634061097353695,0.0057670390941202635
1701815084468504000,8.596504150390626,-0.4234931233406067,0.2026461403697729,0.0099369634562172
1701815084478457000,8.60645703125,-0.36621582337021824,0.17940204290449618,-0.03723528648205101
1701815084488409300,8.616409423828125,-0.33432197098135946,0.1536138139143586,-0.07726793033136055
1701815084498362400,8.6263623046875,-0.29151100325882434,0.14888035565167665,-0.07064071247763931
1701815084508314000,8.636314208984375,-0.24286416898965835,0.13445727802366017,-0.06325597252119332
1701815084518267100,8.64626708984375,-0.17790566686689852,0.0990314521163702,-0.043282530757039785
1701815084528219100,8.65621923828125,-0.15314765770733355,0.06312222660630941,0.001938146722037345
1701815084538172200,8.666172119140626,-0.1475216345191002,0.04624795643389225,0.04348314962936565
1701815084548124400,8.67612451171875,-0.1428150642633438,0.06151186880022287,0.06852074291529134
1701815084558077200,8.6860771484375,-0.1367640936613083,0.06833703864514827,0.04649212218699977
1701815084568030200,8.6960302734375,-0.0961900912106037,0.05631313111335039,0.003370280150696635
1701815084577982200,8.705982177734375,-0.030772154882550237,0.008140636357665062,-0.022919249425083398
1701815084587935200,8.715935302734374,0.02325754146873951,0.022430735255777833,-0.011279427573736756
1701815084597887200,8.72588720703125,0.06669160952568054,0.0313119608476758,-0.021470858981367198
1701815084607840300,8.73584033203125,0.05622106891572475,0.045996612021327016,-0.027997539070062336
1701815084617792300,8.745792236328125,0.058924482655525204,0.0496419827863574,-0.027482940611429512
1701815084627745000,8.7557451171875,0.06950199077129364,0.07138064412474632,-0.03348798971250653
1701815084637697300,8.765697265625,0.06498714369535445,0.10825228492617607,-0.07124596662810072
1701815084647650300,8.775650390625,0.0534346530675888,0.10530366425365209,-0.087215031589102
1701815084657603300,8.785603271484375,0.059147185495495795,0.08861088812798261,-0.08750800491999834
1701815084667556400,8.795556396484375,0.05190145215094089,0.11710253085792063,-0.07181667918814345
1701815084677508000,8.805508056640624,0.08159341058135032,0.1738271653816104,-0.04929081299481913
1701815084687461000,8.815461181640625,0.15048691406548023,0.16085253299623728,-0.04436457210639491
1701815084697413000,8.8254130859375,0.17739479473531244,0.1382142924696207,-0.06997749932855367
1701815084707366100,8.8353662109375,0.21023557258546352,0.12548457475602626,-0.09198781721517443
1701815084717318100,8.845318115234376,0.20854688884615896,0.10307429776638746,-0.09788345112502575
1701815084727271200,8.855271240234375,0.2153945627838373,0.11058335822224616,-0.10470118658216669
1701815084737223200,8.86522314453125,0.20023381853103636,0.09106997171789408,-0.11695429975995793
1701815084747176200,8.87517626953125,0.17884207093417642,0.07942980280667543,-0.09707096569836139
1701815084757128200,8.885128173828125,0.14886954199671745,0.06394055725187063,-0.0776332017134875
1701815084767081200,8.895081298828124,0.10818389586508273,0.058306058496236796,-0.06620534211238846
1701815084777033200,8.905033203125,0.08156652257442473,0.08073153305500745,-0.037050193972419945
1701815084786986200,8.914986328125,0.01838847412765026,0.08925444672852755,-0.01405751398494467
1701815084796938200,8.924938232421875,-0.05426759676039219,0.08937135110646485,0.00682703300844878
1701815084806891300,8.934891357421876,-0.1050830072402954,0.06313742417544126,0.025114165653474626
1701815084816843300,8.94484326171875,-0.18110826230049132,0.04174626110047102,0.03649699880275875
1701815084826796000,8.954796142578125,-0.21227438493669032,0.04285276103764772,0.07248884282866493
1701815084836748000,8.964748046875,-0.24715748226940631,0.03144844670891762,0.07551257456401363
1701815084846701000,8.974701171875,-0.19545885921418665,0.04884148005843162,0.06765519386082887
1701815084856654000,8.984654052734374,-0.13813421297073364,0.05151186831146479,0.07724032993838191
1701815084866606300,8.9946064453125,-0.037837270963191984,0.05770224738419055,0.032100553942099215
1701815084876559400,9.004559326171876,0.029614217019081113,0.04434416863918304,0.03781708669168874
1701815084886511000,9.014510986328125,0.10462415755689143,0.04862374565452337,0.037194296884536744
1701815084896464100,9.024464111328125,0.13090835337042808,0.05856178682297468,0.011336126197036354
1701815084906416000,9.034416015625,0.11933657352030276,0.04035451448112726,-0.01284052114430815
1701815084916369200,9.044369140625,0.10592179615199565,0.04946896430701017,-0.00992994919354096
1701815084926321200,9.054321044921876,0.08665069397091865,0.05186053561866283,0.0202786535221152
1701815084936274200,9.064274169921875,0.04884440266788006,0.04061141185164451,0.10441323648625984
1701815084946226200,9.07422607421875,0.0007908581167459487,0.07178133388012647,0.16499147769818082
1701815084956179200,9.08417919921875,-0.007231704819202422,0.08009381967335939,0.21119497393583878
1701815084966131200,9.094131103515625,-0.004350596424937248,0.011713818669319151,0.20897216505352406
1701815084976084200,9.104084228515624,-0.042563714963197705,-0.03059387570619583,0.20737311409274115
1701815084986036000,9.114035888671875,-0.024938041901588437,-0.07959843737185,0.22900800452940165
1701815084995988200,9.12398828125,0.02399287000596523,-0.09130670308321714,0.2632394695529714
1701815085005941200,9.133941162109375,0.1339741706818342,-0.10328209529817103,0.2983374152127653
1701815085015893200,9.143893310546876,0.19113105914294717,-0.11109949105083941,0.2854888203598559
1701815085025846300,9.15384619140625,0.19456044906973838,-0.11137713894844055,0.25609080337472256
1701815085035798000,9.163798095703125,0.1581914970934391,-0.08162059084922074,0.2182292382204905
1701815085045751000,9.1737509765625,0.10975684427022933,-0.005252805961668491,0.22499124316871164
1701815085055703000,9.183703125,0.0608113193154335,0.03742752111852169,0.2203121637080796
1701815085065656000,9.193656005859374,0.0448994644343853,0.06655044748932122,0.2224044598122127
1701815085075608300,9.2036083984375,0.024950316861271856,0.08425152387470007,0.20258279280997812
1701815085085561300,9.213561279296876,0.023956045126914977,0.08425152387470007,0.205185157328099
1701815085095513000,9.22351318359375,0.0198462717205286,0.05823387004286051,0.19936408649180085
1701815085105466000,9.233466064453125,-0.009959668478369712,0.07436141350120305,0.18289942003358153
1701815085115418000,9.243418212890624,-0.016393500918149947,0.09242664702385664,0.1058876381540671
1701815085125371100,9.25337109375,-0.04889408702850342,0.08744622826278209,0.05884316104762256
1701815085135323400,9.263323486328124,-0.06617839930653571,0.07469342193454503,0.03885693286713213
1701815085145276200,9.273276123046875,-0.059040802511572836,0.08411328444778919,0.05664572406858205
1701815085155228200,9.283228271484376,0.010455343040823935,0.10784019699394702,0.029489238932542503
1701815085165181200,9.29318115234375,0.10279460404217243,0.07817483430951833,-0.008620200035534799
1701815085175133200,9.30313330078125,0.1481517491161823,0.03331190249323845,-0.0028576544534415003
1701815085185086200,9.313086181640625,0.13836042294204234,0.00045651159584522244,0.02751223977115005
1701815085195039200,9.323039306640625,0.0958680196493864,0.018579612785577772,0.007507526085898279
1701815085204991000,9.332990966796874,-0.007182020458579063,0.06782032129466534,-0.042461314034648236
1701815085214944000,9.342944091796875,-0.07165712297856808,0.08162029858827591,-0.11524806209765374
1701815085224896300,9.352896240234376,-0.11465455318391322,0.08943301816582679,-0.16486162250712513
1701815085234849300,9.362849365234375,-0.18660276806354523,0.12050211016833781,-0.19257815267872064
1701815085244801300,9.37280126953125,-0.18852175342738628,0.17010405320525168,-0.21488303306512532
1701815085254754000,9.382754150390625,-0.1614677422851324,0.18842238470613956,-0.21753468008507043
1701815085264706000,9.3927060546875,-0.16881225982904433,0.17032587926238774,-0.18232757496237753
1701815085274659000,9.4026591796875,-0.18162205704152584,0.15447306109219788,-0.15048183603156357
1701815085284611300,9.412611328125,-0.1834703152567148,0.16792466333955525,-0.08671963102128356
1701815085294564400,9.422564453125,-0.14589841723144054,0.16303250738382338,-0.04059672573916614
1701815085304516000,9.43251611328125,-0.03633855683803558,0.12563625818639992,-0.0263764041416347
1701815085314469000,9.44246923828125,0.06826689601838588,0.11171323903501033,-0.020316775309108196
1701815085324421000,9.452421142578125,0.1646960566818714,0.07949146986603736,-0.026583872879855332
1701815085334374100,9.4623740234375,0.26412147655189033,0.06480857225805521,-0.048325529892928897
1701815085344326100,9.472326171875,0.29154256744086743,0.02786708109080791,-0.1011593675231561
1701815085354279200,9.482279052734375,0.2825678183466196,-0.01343932728767395,-0.1411353675480932
1701815085364231200,9.492231201171874,0.2857265746384859,-0.015031564915180205,-0.1808305778702721
1701815085374184200,9.50218408203125,0.27842414267063137,-0.05969663607180118,-0.17693305897507816
1701815085384137200,9.51213720703125,0.2830453727304935,-0.11503946084827184,-0.12288440219499171
1701815085394089200,9.522089111328125,0.2984603840053081,-0.13160422668009997,-0.053284613605029875
1701815085404042200,9.532042236328126,0.26428222007155416,-0.09240063579976558,0.01801752192340791
1701815085413994000,9.541993896484374,0.26459260119497774,-0.08264496546089649,0.02967811256814748
1701815085423947000,9.551947021484375,0.23989596683382985,-0.08806406790018081,0.02917268379665911
1701815085433899300,9.561899169921874,0.1962234138458967,-0.08092851693183183,0.043632074847072363
1701815085443852300,9.571852294921875,0.11379121435284614,-0.05438771600872278,0.026291210076212882
1701815085453804300,9.58180419921875,0.024994740524888037,-0.010718962413072585,-0.0023110899539664385
1701815085463757300,9.59175732421875,-0.10139584316015243,0.02376023029386997,-0.012766323396936058
1701815085473709000,9.601708984375,-0.14335633153319358,0.0341068522632122,0.017502265877649185
1701815085483662000,9.611662109375,-0.1177104336231947,0.07092442478984594,0.07443513632453978
1701815085493614000,9.621614013671875,-0.06656126114428043,0.10237842445671558,0.09655428488049655
1701815085503567000,9.631567138671874,-0.0451958170324564,0.11497282535284757,0.08032086989488452
1701815085513519400,9.641519287109375,-0.03466623971164226,0.12608546325862408,0.05491659872103482
1701815085523472100,9.65147216796875,-0.007620411875844001,0.11462065091431141,0.0372095675189048
1701815085533424000,9.661424072265625,-0.012768880680203437,0.10932634389847516,0.06668835812266916
1701815085543377200,9.671377197265626,-0.03512976557016372,0.11284896506667136,0.07059482750929892
1701815085553329200,9.6813291015625,-0.028420623320341107,0.11147153923362493,0.09107168875094503
1701815085563282200,9.6912822265625,-0.04481996945738792,0.10996434954106807,0.0799946336152032
1701815085573235200,9.701235107421875,-0.05712883141040802,0.10882044020295142,0.04559577613547444
1701815085583187200,9.711187255859375,-0.1079062479674816,0.10153495936989784,0.03672678897064179
1701815085593140200,9.72114013671875,-0.14833704255521296,0.08485065881162882,0.04043948935084045
1701815085603092200,9.73109228515625,-0.15330606313943862,0.09506868596524,0.046498935520276424
1701815085613045200,9.741045166015626,-0.16843991938531397,0.11960633037239313,0.05639927502684295
1701815085622997200,9.750997314453125,-0.1898883656054735,0.09413754259496927,0.06549940406642854
1701815085632950000,9.760949951171876,-0.18218670518696306,0.054657472860813135,0.048593935038149356
1701815085642902000,9.770902099609375,-0.1816799247086048,0.03693213881701231,0.01035937185306102
1701815085652855000,9.78085498046875,-0.14242226555347443,0.03909077815562487,0.02222034390810877
1701815085662807300,9.790807373046874,-0.10466215147972106,0.02668167069852352,0.025072555001452564
1701815085672760300,9.80076025390625,-0.0696644878566265,0.006261398482322693,-0.004519304055348039
1701815085682712000,9.810712158203126,-0.018009119421243665,-0.019399989257752895,-0.03436659917794168
1701815085692665000,9.8206650390625,0.03647942661345005,-0.043105859015882014,-0.01636960858590901
1701815085702617000,9.8306171875,0.07350713475942611,-0.024023557405173777,0.024720234432443974
1701815085712570600,9.840570556640625,0.10725158345103263,0.005662263545393943,0.03506532203182578
1701815085722522600,9.850522705078125,0.06889525704979896,0.02586684718430042,0.010891907827183604
1701815085732475400,9.860475341796874,-0.025389292800426483,0.07554477806687354,-0.0001578209102153778
1701815085742427600,9.870427734375,-0.08667582841217518,0.13424042040258646,-0.0396317531645298
1701815085752380700,9.880380615234374,-0.08245558036863804,0.17198942856043575,-0.08183280882779509
1701815085762332700,9.890332763671875,-0.030839374899864196,0.16445815627276897,-0.16242464115116745
1701815085772285700,9.90028564453125,0.01873918726146221,0.14427432316094635,-0.21641407855730502
1701815085782238500,9.910238525390625,0.07793664163947105,0.15538228489160535,-0.24498539892733096
1701815085792190500,9.9201904296875,0.0884784939199686,0.1812444559007883,-0.28591267179511487
1701815085802143500,9.9301435546875,0.04886778354346752,0.17330051115900277,-0.2947673016410321
1701815085812095700,9.940095703125,-0.021054478466510772,0.1649134988248348,-0.2697996683187783
1701815085822048800,9.950048828125,-0.08799626336097717,0.14513298581689596,-0.2156350204762071
1701815085832000500,9.96000048828125,-0.11840133849680423,0.10482640213072299,-0.18187259773649275
1701815085841953500,9.96995361328125,-0.10988427004218101,0.07577098803818226,-0.12128204503227025
1701815085851905500,9.979905517578125,-0.046132221099734305,0.06892886705845594,-0.07664915911220013
1701815085861858600,9.989858642578126,0.018851415464282036,0.06466974830925465,-0.04536233270578086
1701815085871810600,9.999810546875,0.04344342040717602,0.01490238557755947,-0.026214893436990676
1701815085881763600,10.009763671875,0.036222236981987954,-0.004186930295825004,-0.027873839625157413
1701815085891715600,10.019715576171874,0.013833295041322708,0.0010308043524622917,0.004500270561315119
1701815085901668600,10.029668701171875,0.049316111832857126,-0.0005643558844923973,0.017212927542254328
1701815085911620600,10.03962060546875,0.06819090817272663,0.00033113165050745007,0.019382015209645033
1701815085921573600,10.04957373046875,0.08027239111065865,-0.043913960528373715,0.018380765745230017
1701815085931525600,10.059525634765626,0.12525076600015161,-0.06263736569881438,0.03464585451073944
1701815085941478400,10.069478515625,0.2159568728417158,-0.029230770659446716,0.02442695057429373
1701815085951430700,10.0794306640625,0.21986147906482217,0.04345014240890741,-0.010342274587787687
1701815085961383700,10.0893837890625,0.05188976171314716,0.07376227856427431,-0.04936265438832342
1701815085971335700,10.099335693359375,-0.22022563620209692,0.0109884270042181,-0.02878518231641501
1701815085981288700,10.109288818359374,-0.3778384566247463,-0.02470189505815506,0.0732424924738705
1701815085991241700,10.11924169921875,-0.42182898952066894,-0.013541910879313945,0.11232304149642586
1701815086001193500,10.129193359375,-0.3783879072010517,-0.008190905240178108,0.18086816993430255
1701815086011146500,10.139146484375,-0.3132622318178415,-0.013064064234495161,0.2353515283372253
1701815086021098500,10.149098388671876,-0.21312194167673587,0.010643266828358172,0.22296324447244403
1701815086031051500,10.159051513671875,-0.1281844813644886,0.03877747442275285,0.16659918688945471
1701815086041003800,10.169003662109375,-0.07755845597684383,0.04543780909478664,0.0886587458577007
1701815086050956500,10.17895654296875,-0.02593874337673187,0.01611409945487976,0.015246230579167604
1701815086060908500,10.188908447265625,0.03925941272079944,0.003214285871386528,-0.01732939352877438
1701815086070861600,10.198861572265624,0.09098959995806216,0.034761516779661175,-0.057768079162016504
1701815086080813600,10.2088134765625,0.13490356048643587,0.06375701737850904,-0.05213014634028077
1701815086090766600,10.2187666015625,0.14848609563708304,0.06092939273715019,-0.04304185386896133
1701815086100718600,10.228718505859375,0.15475567742586135,0.06596271072924137,-0.05171886212565004
1701815086110671600,10.238671630859375,0.15533435409665106,0.06972849300354719,-0.05438077481128275
1701815086120623600,10.24862353515625,0.14545242702960967,0.06077069504410028,-0.06839271435514092
1701815086130576600,10.25857666015625,0.13879881435930727,0.05042144272625446,-0.0535413283124566
1701815086140528600,10.268528564453124,0.15632862583100796,0.0408516503483057,-0.07076382740065455
1701815086150481700,10.278481689453125,0.15784136848151684,0.06522358279973269,-0.05834434468001127
1701815086160433400,10.288433349609376,0.15542553951144217,0.04644464804977178,-0.0595326776817441
1701815086170386400,10.298386474609375,0.12472118916809558,0.06781096894443035,-0.033258564870804544
1701815086180338700,10.308338623046875,0.11306231555640697,0.0920727190196514,-0.01776332796663046
1701815086190291700,10.318291748046875,0.0793856714040041,0.07340747377723456,-0.03347578781805932
1701815086200244700,10.32824462890625,0.05258884989321232,0.052387482102215284,-0.018707476948946714
1701815086210196500,10.338196533203124,0.035550621330738066,0.05129939460456371,-0.029449527976661918
1701815086220149500,10.3481494140625,0.025585692155361175,0.04324731331318617,-0.03578450315184891
1701815086230101500,10.3581015625,-0.01049567505121231,0.02063099235743284,-0.03483545879870653
1701815086240054500,10.368054443359375,-0.03546937278807163,0.026230419799685475,0.011404241263493894
1701815086250006800,10.3780068359375,-0.008209025418758393,0.05959317569732666,0.03255699247270823
1701815086259959800,10.387959716796875,0.019990064105391503,0.06618219869881868,0.05093998670764267
1701815086269911600,10.39791162109375,0.040948096460103986,0.03166939598321915,0.06376710038110614
1701815086279864600,10.407864501953124,0.07918108874261379,0.009007774581015109,0.0719124859791249
1701815086289816600,10.417816650390625,0.07105974160730838,0.012080898416042327,0.07747326191142201
1701815086299769600,10.42776953125,0.036596915513277053,0.011969546996057033,0.10166581920795142
1701815086309721300,10.437721435546875,-0.03686754914820194,-0.004978080673515796,0.08846841091737151
1701815086319674400,10.44767431640625,-0.07954290779232978,-0.011559212629497051,0.10246749097965657
1701815086329626600,10.457626708984375,-0.12756722624897956,-0.01706131717711687,0.12673457481712103
1701815086339579600,10.46757958984375,-0.1629968515485525,0.004062134872376918,0.14640300575271248
1701815086349531600,10.47753173828125,-0.18602876756787298,0.01104337206184864,0.15821750831753015
1701815086359484700,10.487484619140625,-0.21236498582959173,0.05178308646827936,0.13970007404796778
1701815086369436400,10.4974365234375,-0.2302127772092819,0.06610299598276614,0.14543079971969128
1701815086379389400,10.507389404296875,-0.23750819491446018,0.07601824079751968,0.12339132880382239
1701815086389341700,10.517341796875,-0.20319325285851955,0.08387801438719034,0.13739187017083168
1701815086399294700,10.527294677734375,-0.1529629487901926,0.08282032202780246,0.13643150070607662
1701815086409246700,10.537246826171875,-0.10395955616831778,0.09651303955465555,0.14083791897147893
1701815086419199700,10.54719970703125,-0.04589022903740406,0.09571166004389524,0.08387005027644336
1701815086429152500,10.557152587890625,-0.04568272376656532,0.10895224988907574,0.05808686278760433
1701815086439104500,10.5671044921875,-0.02609948689639568,0.08971884936988353,0.02752425900250673
1701815086449057500,10.5770576171875,-0.04888122754693031,0.0706163817539811,-0.019873963445052503
1701815086459009500,10.587009521484376,-0.0645972675949335,0.04949176066070795,-0.04777896539345383
1701815086468962600,10.596962646484375,-0.0627940175652504,0.0543561518266797,-0.07092113685421646
1701815086478914600,10.60691455078125,-0.0523322447836399,0.058684244158864016,-0.0891934372562915
1701815086488867600,10.61686767578125,-0.022931378254294393,0.08707505686283111,-0.08897446074336766
1701815086498819600,10.626819580078125,-0.00015957447588443754,0.11555500915497541,-0.08268566279746592
1701815086508772600,10.636772705078124,0.018071078741550443,0.12789163589775562,-0.06539952388852835
1701815086518724600,10.646724609375,0.015366495957970619,0.12071341483145952,-0.0544722524870187
1701815086528677600,10.656677734375,-0.004353519034385681,0.08991524872481822,-0.05653576088808476
1701815086538629600,10.666629638671875,-0.0603799421608448,0.056844753772020334,-0.056176060730218885
1701815086548582700,10.676582763671876,-0.12064531803131102,0.01667261012047529,-0.03621032734848559
1701815086558534700,10.68653466796875,-0.16134382364451885,0.02050298206359148,-0.03360102163292467
1701815086568487700,10.69648779296875,-0.18201310218572617,0.005877075339853763,-0.056851768034696576
1701815086578439400,10.706439453125,-0.1303068803459406,-0.009765314950048922,-0.05911167579069733
1701815086588392400,10.716392333984375,-0.1044862103909254,-0.01912175683826208,-0.059308878863230344
1701815086598344400,10.726344482421876,-0.07231880175769329,-0.011688976489007472,-0.07353153854832052
1701815086608297500,10.73629736328125,-0.04001403048038482,0.009635551090538501,-0.08489676297567784
1701815086618249700,10.746249755859376,-0.02020925981402397,0.04932721774876117,-0.07481755977086722
1701815086628202800,10.75620263671875,-0.017513444858789442,0.09772826056331395,-0.06287658128216862
1701815086638154500,10.766154541015625,-0.029081717577576636,0.10877893914878367,-0.09523103692010045
1701815086648107500,10.776107421875,-0.05281096821129322,0.11979191607236861,-0.09111169196777046
1701815086658060500,10.786060546875,-0.08841711912155151,0.1378302615880966,-0.08277429092898965
1701815086668012500,10.796012451171874,-0.06785714617371559,0.11795184116363525,-0.044138416934013366
1701815086677965600,10.805965576171875,-0.04881108492016792,0.10391571702659129,-0.03969751187711954
1701815086687917600,10.81591748046875,-0.007137596794962882,0.09531944585591554,-0.020858882829174398
1701815086697870600,10.82587060546875,0.06282499722540379,0.07058160270154476,0.004798047931492328
1701815086707822600,10.835822509765626,0.10891162561774254,0.046372751857340334,0.007275397830456495
1701815086717775000,10.845775146484375,0.11245499731302261,0.04749415710270405,0.027127587835118174
1701815086727726800,10.855726806640625,0.11037059225440024,0.038135669387876985,0.03860204479061067
1701815086737680000,10.865679931640624,0.10768997486829757,0.05573708479106426,0.040325580647587775
1701815086747632000,10.875632080078125,0.08220306691229343,0.052018941050767896,0.030396307307481763
1701815086757585200,10.885585205078126,0.0907873553842306,0.04975830264240503,0.023963570846244692
1701815086767537200,10.895537109375,0.10390168850123882,0.028531682479381558,0.016000263816863296
1701815086777490200,10.905490234375,0.14582242938578127,0.024533260492980477,0.04846621700525283
1701815086787442000,10.91544189453125,0.14899229159355162,0.006899111863970756,0.03004705547839403
1701815086797395000,10.92539501953125,0.10344225429594515,0.0071305825322866435,0.011596110573783517
1701815086807347000,10.935346923828124,0.05993804361224174,-0.004268471099436283,0.02953749852105975
1701815086817300000,10.945300048828125,-0.006350245809555053,0.005934066224098205,-0.0073589113954454655
1701815086827252200,10.955252197265626,0.00281856455206871,0.034032910244166846,0.00677782357186079
1701815086837205000,10.965205078125,0.0034229601860046384,0.025793489687144754,0.009008943624794482
1701815086847157000,10.975156982421876,0.019975451058149338,0.026765549589693544,-0.0002937222495675087
1701815086857110000,10.985110107421875,0.03314940540790558,0.0237894563883543,-0.012109978380054235
1701815086867062000,10.99506201171875,0.055202831783890724,0.014586451496183872,0.0006360328812152146
1701815086877015000,11.00501513671875,0.022646716094017028,0.021871347807347775,-0.027877748615294694
1701815086886967000,11.014967041015625,0.0009790741652250289,0.019271394442021847,-0.006800839121267199
1701815086896920000,11.024920166015624,-0.03518646419346332,-0.0018207856863737106,-0.005533011142536998
1701815086906873000,11.034873046875,-0.10021744703054428,0.013991700473427772,-0.012593085721880197
1701815086916825000,11.0448251953125,-0.11321604481339453,0.05124152693748474,0.0006423164915293455
1701815086926778000,11.054778076171875,-0.09621990182697772,0.07704612254053354,-0.007318652450293302
1701815086936730000,11.064730224609375,-0.07723170824050903,0.10838029522001742,-0.024258535204827784
1701815086946683000,11.074682861328125,-0.06449672982990741,0.1260322717666626,-0.058058732671663164
1701815086956635000,11.084634765625,-0.03844108207523823,0.08477700905352831,-0.07018748881742358
1701815086966588000,11.094587890625,0.012173837396502494,0.05925882917642593,-0.0852818898357451
1701815086976540200,11.1045400390625,0.027566052317619324,0.03639379415661096,-0.07094378707744181
1701815086986493200,11.1144931640625,0.04340834909379482,0.05911328322589397,-0.03809234170280397
1701815086996445000,11.12444482421875,0.0659440060287714,0.060383449292182916,-0.029324659487977623
1701815087006398000,11.13439794921875,0.04230652533173561,0.041489655990898607,-0.03340169966854155
1701815087016350000,11.144349853515624,0.02353986554145813,0.06506020893156528,-0.04307444096431136
1701815087026303000,11.154302978515625,0.014773206239938734,0.08467354867905377,-0.04672850649245083
1701815087036255200,11.164255126953124,0.03653846332430839,0.06910159327685833,-0.03338460240326822
1701815087046208300,11.174208251953125,0.06131459266245365,0.08325812892317772,-0.03158544402681291
1701815087056160000,11.184159912109376,0.05211772525012493,0.08297609711140394,-0.04997874046005309
1701815087066113000,11.194113037109375,0.04388239634633064,0.05936667346507311,-0.03160597535818815
1701815087076065000,11.20406494140625,0.04350421068370342,0.04978460612744093,-0.001137991053983569
1701815087086018000,11.21401806640625,0.02796002007126808,0.05863572884202003,-0.0012545301057398318
1701815087095970000,11.223969970703125,-0.0004664484679698944,0.04225011896938086,0.014399623687192796
1701815087105922800,11.2339228515625,-0.020853402936458588,0.03907148893326521,0.018108780403435228
1701815087115875000,11.243875,-0.05704641382396221,0.05427227293550968,0.014727175141125917
1701815087125828000,11.253828125,-0.07974924401938915,0.04957768537849187,0.011357552577555179
1701815087135780000,11.263780029296875,-0.12049158877432346,0.02534311557114124,-0.02077463861182332
1701815087145733000,11.273733154296876,-0.14214987835288048,0.01968640498369932,0.005649184868112206
1701815087155686100,11.28368603515625,-0.15698972008824347,0.029302374590933322,0.030282983126118778
1701815087165638000,11.293637939453125,-0.1355874510973692,0.058252574743330475,0.04551847311556339
1701815087175591000,11.3035908203125,-0.15577449907958507,0.04177431815117597,0.041991906424611807
1701815087185543200,11.313543212890625,-0.15487667345702646,0.03188859169185161,0.020427359544113278
1701815087195496200,11.32349609375,-0.14030746535658836,0.05068535435944795,0.017011852012202143
1701815087205448200,11.3334482421875,-0.1258008010983467,0.05932809502035379,0.030863997884467243
1701815087215401000,11.34340087890625,-0.10228022477924824,0.08835252945274114,0.05077705123089254
1701815087225353000,11.35335302734375,-0.07816811230778693,0.07428162626326083,0.04253821519576013
1701815087235306000,11.363305908203126,-0.0865220991551876,0.06128887369930744,0.029111747389659284
1701815087245258000,11.373258056640625,-0.08114449777007103,0.04984072022885084,0.02617057937122881
1701815087255211000,11.3832109375,-0.07185702946484089,0.047532151025533674,0.005894610996544361
1701815087265163000,11.3931630859375,-0.0371264923453331,0.05051087457537651,0.014341902150586247
1701815087275116000,11.403115966796875,-0.02232815166413784,0.045699090379476545,0.011671221636608243
1701815087285068000,11.413068115234376,0.008383212941884995,0.05375877045542001,0.014161796343326568
1701815087295021000,11.42302099609375,0.03516659044921398,0.05226970094144344,-0.003277414235472679
1701815087304973000,11.43297314453125,0.05215981082618236,0.06886018573641776,-0.007145780101418495
1701815087314926000,11.442926025390625,0.07859890494048595,0.06541589050143956,0.0018892478127032516
1701815087324878000,11.452878173828125,0.06750058782100678,0.05856295586675405,0.0018266309052705765
1701815087334831000,11.4628310546875,0.06898235081136227,0.05572510209232569,0.019419863002002238
1701815087344783000,11.472783203125,0.07525368616580963,0.051670858265459536,0.07135426757447422
1701815087354736000,11.482736083984374,0.0637567251175642,0.03890490019470453,0.0960489291742444
1701815087364688100,11.492688232421875,0.05672375774085522,0.04922171154767275,0.10021130955070257
1701815087374641000,11.502640869140626,0.013561492362618445,0.02201952410638332,0.0695739600289613
1701815087384593000,11.512593017578125,-0.016978022807836533,0.003022270430624485,0.06405526967272163
1701815087394546000,11.5225458984375,-0.03716916244328022,0.001997311297059059,0.037956586493924256
1701815087404498200,11.532498291015624,-0.04382803581058979,0.01854629503786564,0.02607990541309118
1701815087414451200,11.542451171875,-0.016733108136057852,0.015324702642858028,0.024836481223255394
1701815087424404200,11.552404296875,0.03877835120558738,0.008641571617126465,0.018398045673593877
1701815087434356000,11.56235595703125,0.09693184948861598,-0.006647182929515838,0.011494038438796997
1701815087444309000,11.57230908203125,0.09007423867881298,-0.010739128418266772,-0.005854205920919776
1701815087454261000,11.582260986328125,0.04106675440371036,0.01923427730202675,-0.032375936817377805
1701815087464214000,11.592214111328126,-0.04303659317195415,0.03723609019964933,-0.03914645386561751
1701815087474166300,11.602166259765625,-0.08180033133029938,0.05116583135277033,-0.02437704701796174
1701815087484119000,11.612119140625,-0.11057108326256275,0.06788257287591695,-0.041320948360487816
1701815087494071000,11.622071044921874,-0.09998889897167682,0.06718932991474866,-0.02093625891432166
1701815087504024000,11.632024169921875,-0.037895138630270955,0.07092120991945267,0.010107844777405261
1701815087513976000,11.64197607421875,0.019513678765296937,0.07342413265109062,0.008802461267262697
1701815087523929000,11.65192919921875,0.046426820132136344,0.05302870261520147,0.019692250202596188
1701815087533880800,11.661880859375,0.06321954950094223,0.05253711970597505,0.018901026759669183
1701815087543833900,11.671833740234375,0.07885434100627899,0.057548518127202984,-0.00408178942091763
1701815087553786000,11.6817861328125,0.07265490184426307,0.04073883762359619,-0.0066516399089246985
1701815087563739100,11.6917392578125,0.053873629006743425,0.0640942865088582,-0.027622093353793023
1701815087573691100,11.701691162109375,0.054981297987699504,0.06178045660853385,-0.07014722987227141
1701815087583644200,11.71164404296875,0.04630933123230934,0.06755056444257497,-0.07709186137840152
1701815087593596000,11.721595947265625,0.018183891466259955,0.0850172475501895,-0.09960384517684578
1701815087603549000,11.731548828125,-0.014452888244390488,0.10585749874413013,-0.10835830258391797
1701815087613501200,11.741501220703125,-0.05333586886823177,0.10402736070752143,-0.08425539633221923
1701815087623454200,11.7514541015625,-0.04133504995107651,0.09261194046288729,-0.07688625580370426
1701815087633406200,11.76140625,-0.03243102800548076,0.08533201258778572,-0.07380852885879575
1701815087643359000,11.77135888671875,0.0011123451560735701,0.06683364834487437,-0.07018814640454947
1701815087653311000,11.78131103515625,-0.002093172886967659,0.03939648310393095,-0.05157200100086629
1701815087663264000,11.791263916015625,-0.008311901271343231,0.039243922890722746,-0.05342259730361402
1701815087673216000,11.801216064453126,-0.035549452286958695,0.029061259311437604,-0.0423247185755521
1701815087683169000,11.8111689453125,-0.06540273875892162,0.011198270362615585,-0.05322459051348269
1701815087693122000,11.8211220703125,-0.07317921797931194,0.027726795837283134,-0.07158091593720019
1701815087703074000,11.831073974609374,-0.08957388794124126,0.03272971869111061,-0.0772187026284635
1701815087713027000,11.841027099609375,-0.055989598247408866,0.05955605855733156,-0.06364464304521679
1701815087722979300,11.850979248046874,-0.03698094639480114,0.07316285136640072,-0.051905251543223854
1701815087732932400,11.860932373046875,-0.00630114597082138,0.07494535086899995,-0.0358627560198307
1701815087742884400,11.87088427734375,0.010016951623558997,0.06892828253656626,-0.008084156930074094
1701815087752837400,11.88083740234375,-0.013950783941149712,0.0737473732560873,-0.0039043870273977517
1701815087762789400,11.890789306640626,-0.016615034714341163,0.08835311397463083,-0.008793181982263922
1701815087772742400,11.900742431640625,-0.02252864267230034,0.05503156687021255,-0.021977146269381045
1701815087782694400,11.9106943359375,-0.024625322690606116,0.0413572617828846,-0.0378184931974858
1701815087792647400,11.9206474609375,-0.021014730978012083,0.03114420306533575,-0.02757825421206653
1701815087802599400,11.930599365234375,-0.0049801265001296995,0.027994799123704433,-0.024515359510108827
1701815087812552400,11.940552490234374,0.0033370354682207104,0.04252425973564386,0.0044889819823205465
1701815087822504400,11.95050439453125,-0.02550210552513599,0.02959258970916271,0.0338813729442656
1701815087832457200,11.960457275390626,-0.045503860068321224,0.027804244987666604,0.07563179876320064
1701815087842409500,11.970409423828125,-0.06092939273715019,0.03620820845663547,0.08881817420311272
1701815087852362500,11.980362548828126,-0.08936813623607158,0.05958908404409885,0.08120660322085023
1701815087862314500,11.990314453125,-0.06703998457193375,0.0766793350547552,0.06924370516128837
1701815087872267500,12.000267578125,-0.04019932391941547,0.05330255112051963,0.03235357885509729
1701815087882219300,12.01021923828125,-0.00538052399456501,0.03285743672400713,0.018925430548563597
1701815087892172300,12.02017236328125,0.057822074371576306,0.043561493828892704,0.043058585808053614
1701815087902124300,12.030124267578126,0.08191022144556045,0.023025194017589092,0.024434110967442392
1701815087912077300,12.040077392578125,0.09372633144557475,0.01988514242619276,0.03012158201932907
1701815087922029600,12.050029541015626,0.08325637535750866,0.004656593634188175,0.03670461367145181
1701815087931982600,12.059982666015625,0.06397767439186573,0.01798486176282167,0.027271526350453493
1701815087941934300,12.069934326171875,0.04487140738368034,0.04337912299931049,0.02670373639985919
1701815087951887400,12.079887451171874,-0.0020849895805120466,0.05172609558403492,0.0098954441357404
1701815087961839400,12.08983935546875,-0.020341946282982824,0.06743658267408609,0.01353336224667728
1701815087971792400,12.09979248046875,-0.024539982494711874,0.06632979047596455,0.013654796669259667
1701815087981744600,12.10974462890625,-0.014974866291880606,0.049777591864764686,0.012820099410787223
1701815087991697400,12.119697509765626,0.010402151548862457,0.02881488333493471,-0.004531725145503878
1701815088001650400,12.129650390625,-0.0002104278802871704,0.011594283942878246,0.01221782266870141
1701815088011602400,12.1396025390625,-0.0006809680014848708,0.009527999062836169,0.02299750229306519
1701815088021555500,12.149555419921874,0.005464110624790191,0.024760931769013405,0.0005162058938294649
1701815088031507500,12.159507568359375,0.011495792004466055,0.03145721453726291,-0.01758680235594511
1701815088041460500,12.16946044921875,0.029531799432635307,0.03214753488898277,-0.03075893007479608
1701815088051412200,12.179412109375,-0.0005617255359888076,0.039350305874645705,-0.01949278210774064
1701815088061365200,12.189365234375,-0.004445288971066475,0.07525836234092712,-0.016591726903989912
1701815088071317500,12.1993173828125,-0.001149170035123825,0.06772738231420516,-0.015186682411655782
1701815088081270500,12.2092705078125,-0.004087561574578285,0.06634264995753765,-0.01215652093552053
