time,seconds_elapsed,z,y,x
1701815075885692000,0.01369189453125,0.09280024468898773,0.023264575749635696,0.16356895864009857
1701815075895644000,0.023643798828125,0.1474837362766266,0.14677639305591583,0.16659323871135712
1701815075905597000,0.033596923828125,0.2690277397632599,0.09941500425338745,0.19461049139499664
1701815075915549000,0.043548828125,0.4274751543998718,0.12259968370199203,0.1848343014717102
1701815075925501700,0.053501708984375,0.55745929479599,0.22009748220443726,0.16912537813186646
1701815075935454000,0.063453857421875,0.608870804309845,0.3821026384830475,0.172842875123024
1701815075945407000,0.073406982421875,0.6351402401924133,0.5868176817893982,0.18488329648971558
1701815075955359000,0.08335888671875,0.63576340675354,0.8708906769752502,0.19341740012168884
1701815075965312000,0.09331201171875,0.6748178601264954,1.1259105205535889,0.17135736346244812
1701815075975263700,0.103263671875,0.753150463104248,1.4631766080856323,0.1380998194217682
1701815075985216800,0.113216796875,0.8179491758346558,1.6695537567138672,0.1547650843858719
1701815075995169000,0.1231689453125,0.8511377573013306,1.7275941371917725,0.23685142397880554
1701815076005122000,0.1331220703125,0.8281975388526917,1.703100323677063,0.35055989027023315
1701815076015074000,0.143073974609375,0.7666335105895996,1.640122413635254,0.473972886800766
1701815076025027000,0.153027099609375,0.7401174902915955,1.534685492515564,0.5512738227844238
1701815076034978800,0.162978759765625,0.7180079221725464,1.5492314100265503,0.7573273777961731
1701815076044931800,0.172931884765625,0.6776506304740906,1.2108490467071533,0.781836986541748
1701815076054883800,0.1828837890625,0.5634854435920715,0.985964834690094,0.8421181440353394
1701815076064836900,0.1928369140625,0.4724532961845398,0.6340041160583496,0.923126220703125
1701815076074788900,0.202788818359375,0.32632166147232056,0.19779670238494873,0.9543775916099548
1701815076084742000,0.212741943359375,-0.046596262603998184,-0.47297659516334534,0.7425447106361389
1701815076094694000,0.22269384765625,-0.19264455139636993,-0.8145073056221008,0.5235534906387329
1701815076104647000,0.23264697265625,-0.22575563192367554,-0.749119222164154,0.3267757296562195
1701815076114599000,0.242598876953125,-0.16427789628505707,-0.6265062689781189,0.1501157283782959
1701815076124552000,0.252552001953125,-0.15411420166492462,-0.4212004840373993,-0.01756727509200573
1701815076134505000,0.2625048828125,-0.13707156479358673,-0.3064046800136566,-0.19953495264053345
1701815076144457000,0.27245703125,-0.06523812562227249,-0.3322597146034241,-0.3605174422264099
1701815076154410000,0.282409912109375,0.008279235102236271,-0.3747624158859253,-0.484687864780426
1701815076164362000,0.292362060546875,0.06576782464981079,-0.4386255443096161,-0.5567378401756287
1701815076174315000,0.30231494140625,0.13701830804347992,-0.5180226564407349,-0.5711748003959656
1701815076184266800,0.312266845703125,0.22694632411003113,-0.6821489930152893,-0.5510591864585876
1701815076194219800,0.3222197265625,0.2898579239845276,-0.8918761014938354,-0.5319243669509888
1701815076204171800,0.332171875,0.27010419964790344,-1.0871119499206543,-0.5359752774238586
1701815076214124800,0.342124755859375,0.17592628300189972,-1.266461968421936,-0.5750861763954163
1701815076224077000,0.3520771484375,0.11799295246601105,-1.3663321733474731,-0.6298700571060181
1701815076234030000,0.362030029296875,0.13976269960403442,-1.3993723392486572,-0.6933899521827698
1701815076243981800,0.37198193359375,0.25275927782058716,-1.4145419597625732,-0.7464081645011902
1701815076253934800,0.381934814453125,0.37425535917282104,-1.2739646434783936,-0.7809091210365295
1701815076263886800,0.391886962890625,0.45387962460517883,-1.0319712162017822,-0.8288931846618652
1701815076273839900,0.40183984375,0.566063404083252,-0.8747684955596924,-0.8812583684921265
1701815076283792100,0.411792236328125,0.7284520268440247,-0.8678832054138184,-0.9486182332038879
1701815076293745000,0.421744873046875,0.923422634601593,-0.9732218384742737,-1.0426353216171265
1701815076303697000,0.43169677734375,1.1477880477905273,-1.1676679849624634,-1.1378995180130005
1701815076313650000,0.44164990234375,1.3812469244003296,-1.3564879894256592,-1.196077585220337
1701815076323602000,0.451601806640625,1.5356444120407104,-1.2675166130065918,-1.1124095916748047
1701815076333555000,0.461554931640625,1.5454823970794678,-0.8855127692222595,-0.8917714953422546
1701815076343508000,0.471508056640625,1.4583624601364136,-0.4485706090927124,-0.6327114105224609
1701815076353459700,0.481459716796875,1.3055553436279297,-0.1351599544286728,-0.48187050223350525
1701815076363412700,0.491412841796875,1.147574782371521,-0.08851788192987442,-0.47981053590774536
1701815076373365000,0.501364990234375,1.0832809209823608,-0.23233044147491455,-0.5707457661628723
1701815076383318000,0.511318115234375,1.1376824378967285,-0.42302289605140686,-0.7095987200737
1701815076393270000,0.52127001953125,1.2729755640029907,-0.585036039352417,-0.832648515701294
1701815076403223000,0.53122314453125,1.4180406332015991,-0.6464059352874756,-0.868208646774292
1701815076413174800,0.5411748046875,1.5377970933914185,-0.596244215965271,-0.8020961880683899
1701815076423127800,0.5511279296875,1.5812699794769287,-0.5368837118148804,-0.6829599142074585
1701815076433080000,0.561080078125,1.6023470163345337,-0.4942001402378082,-0.5119810104370117
1701815076443033000,0.571033203125,1.6559873819351196,-0.3362254202365875,-0.2854061722755432
1701815076452984800,0.58098486328125,1.6193686723709106,-0.0957246646285057,-0.09620083123445511
1701815076462937900,0.590937744140625,1.4750293493270874,0.050336405634880066,0.010607636533677578
1701815076472889900,0.600889892578125,1.2992631196975708,-0.05964841693639755,-0.04735206812620163
1701815076482843000,0.6108427734375,1.0827430486679077,-0.37859922647476196,-0.26440635323524475
1701815076492795000,0.620794921875,0.7997347712516785,-0.9108679294586182,-0.56060791015625
1701815076502748000,0.630747802734375,0.5056203007698059,-1.4520219564437866,-0.8364259004592896
1701815076512701000,0.640700927734375,0.34284284710884094,-1.975898265838623,-0.9997192621231079
1701815076522653000,0.65065283203125,0.28970426321029663,-2.3729264736175537,-1.032752513885498
1701815076532606000,0.66060595703125,0.3006756901741028,-2.5023529529571533,-0.8951813578605652
1701815076542558000,0.670557861328125,0.39878013730049133,-2.191527843475342,-0.6111331582069397
1701815076552511000,0.680510986328125,0.5393210053443909,-1.4951974153518677,-0.3585816025733948
1701815076562462700,0.690462646484375,0.7095199227333069,-0.7226333022117615,-0.1918083131313324
1701815076572415700,0.700415771484375,0.9004568457603455,-0.14313212037086487,-0.12215679883956909
1701815076582368000,0.710367919921875,1.0916944742202759,0.08631198853254318,-0.14347274601459503
1701815076592321000,0.720321044921875,1.2431105375289917,0.06370121240615845,-0.2368122786283493
1701815076602273000,0.73027294921875,1.284920334815979,-0.0879647433757782,-0.3741821050643921
1701815076612226000,0.74022607421875,1.2710188627243042,-0.42086654901504517,-0.5416086912155151
1701815076622177800,0.750177734375,1.2852880954742432,-0.8084235787391663,-0.6482115387916565
1701815076632130800,0.760130859375,1.393550992012024,-1.0502731800079346,-0.6579129099845886
1701815076642082800,0.770082763671875,1.584609866142273,-0.9737755060195923,-0.542755663394928
1701815076652035800,0.780035888671875,1.7994883060455322,-0.6582551002502441,-0.3005792796611786
1701815076661988900,0.78998876953125,1.9769965410232544,-0.2754627466201782,-0.11556574702262878
1701815076671940900,0.79994091796875,2.1723740100860596,0.11685711145401001,-0.04735766351222992
1701815076681894000,0.809893798828125,2.449455976486206,0.35166776180267334,-0.07955607771873474
1701815076691846000,0.819845947265625,2.8588178157806396,0.40746816992759705,-0.16465339064598083
1701815076701799000,0.829798828125,3.2471044063568115,0.46432000398635864,-0.19783371686935425
1701815076711750100,0.839750244140625,3.5232598781585693,0.507773756980896,-0.11581981182098389
1701815076721703200,0.849703125,3.7327699661254883,0.4231720268726349,0.06365567445755005
1701815076731655000,0.859655029296875,3.9370334148406982,0.26142680644989014,0.26284149289131165
1701815076741608000,0.86960791015625,4.159862995147705,0.11966168880462646,0.40714752674102783
1701815076751560000,0.879559814453125,4.36735200881958,0.2823376953601837,0.49158865213394165
1701815076761513000,0.889512939453125,4.422082901000977,0.7074831128120422,0.5263857841491699
1701815076771465000,0.89946484375,4.26962947845459,1.1400848627090454,0.4645293354988098
1701815076781417700,0.909417724609375,3.9848263263702393,1.4235317707061768,0.321211576461792
1701815076791370000,0.919369873046875,3.791978359222412,1.4081240892410278,0.20892418920993805
1701815076801323000,0.929322998046875,3.764822006225586,1.072356104850769,0.15550597012043
1701815076811276000,0.939276123046875,3.8019635677337646,0.6189953088760376,0.14600753784179688
1701815076821228000,0.94922802734375,3.825026035308838,-0.004683967679738998,0.15715552866458893
1701815076831181000,0.95918115234375,3.7240326404571533,-0.8276712894439697,0.11078190803527832
1701815076841132800,0.9691328125,3.529606580734253,-1.5019477605819702,0.015418104827404022
1701815076851085800,0.9790859375,3.4098031520843506,-1.8619728088378906,-0.01540265791118145
1701815076861038000,0.9890380859375,3.4528887271881104,-1.9055482149124146,0.0631888210773468
1701815076870991000,0.9989912109375,3.659104585647583,-1.5419145822525024,0.22976262867450714
1701815076880943000,1.008943115234375,3.8762238025665283,-0.8854352831840515,0.45850977301597595
1701815076890896100,1.018896240234375,4.013826370239258,-0.17346473038196564,0.6991807222366333
1701815076900847900,1.028847900390625,4.124330043792725,0.3224531412124634,0.9373336434364319
1701815076910801000,1.03880078125,4.175014495849609,0.6656427383422852,1.1267778873443604
1701815076920753000,1.0487529296875,4.0800676345825195,0.7933737635612488,1.2247624397277832
1701815076930706000,1.058705810546875,3.859067440032959,0.5920473337173462,1.2473818063735962
1701815076940658000,1.068657958984375,3.5861613750457764,0.17193208634853363,1.2236453294754028
1701815076950611000,1.07861083984375,3.3221991062164307,-0.23722772300243378,1.1816126108169556
1701815076960563000,1.08856298828125,3.121676445007324,-0.5064195394515991,1.1038235425949097
1701815076970516000,1.098515869140625,2.981400728225708,-0.5506306290626526,1.0053459405899048
1701815076980469000,1.108468994140625,2.833991050720215,-0.5016008019447327,0.9349149465560913
1701815076990421000,1.1184208984375,2.6833794116973877,-0.3655683994293213,0.8950964212417603
1701815077000374000,1.1283740234375,2.5658986568450928,-0.22155849635601044,0.8487054705619812
1701815077010326000,1.138325927734375,2.473129987716675,-0.1663476973772049,0.7851632833480835
1701815077020279000,1.148279052734375,2.417139768600464,-0.22129669785499573,0.7212298512458801
1701815077030231000,1.15823095703125,2.44697904586792,-0.2683025598526001,0.7223765850067139
1701815077040184000,1.16818408203125,2.4919490814208984,-0.7345067262649536,0.8555793762207031
1701815077050135800,1.1781357421875,2.3346846103668213,-0.5976756811141968,0.9151350855827332
1701815077060088800,1.1880888671875,2.048327922821045,-0.5981736779212952,0.9679935574531555
1701815077070040800,1.198040771484375,1.7180429697036743,-0.8082552552223206,1.0568938255310059
1701815077079993900,1.207993896484375,1.3867127895355225,-0.9358276128768921,1.167543649673462
1701815077089946000,1.217946044921875,1.1792175769805908,-0.9564338326454163,1.2388935089111328
1701815077099899100,1.227899169921875,1.110830545425415,-0.9191847443580627,1.2960443496704102
1701815077109851000,1.237850830078125,1.1488914489746094,-0.830116868019104,1.341160774230957
1701815077119804000,1.247803955078125,1.2094138860702515,-0.5120962858200073,1.2545009851455688
1701815077129757000,1.2577568359375,1.2581926584243774,-0.14271001517772675,1.058357834815979
1701815077139709000,1.267708984375,1.2228302955627441,0.23288464546203613,0.7820484042167664
1701815077149662000,1.277661865234375,1.139753818511963,0.5919711589813232,0.5066994428634644
1701815077159614000,1.287614013671875,1.0893611907958984,0.8495584726333618,0.32478395104408264
1701815077169567000,1.29756689453125,1.0459133386611938,0.8523524403572083,0.2789914309978485
1701815077179519000,1.30751904296875,0.9649884104728699,0.6130447387695312,0.40203770995140076
1701815077189472000,1.317471923828125,0.7972148656845093,0.2510561943054199,0.7389712929725647
1701815077199424000,1.327424072265625,0.6355620622634888,0.0583471953868866,1.0644673109054565
1701815077209377000,1.337376953125,0.6069573163986206,0.3386286497116089,0.9299633502960205
1701815077219328800,1.347328857421875,0.8544099926948547,1.2294021844863892,-0.1820739358663559
1701815077229281800,1.35728173828125,0.8799853920936584,1.0459331274032593,-0.5729634165763855
1701815077239234000,1.367234130859375,0.7372865676879883,0.5075390934944153,-0.2720983624458313
1701815077249187000,1.37718701171875,0.66252601146698,0.4030851423740387,0.05848594754934311
1701815077259139000,1.38713916015625,0.6538577079772949,0.5465693473815918,0.2698567807674408
1701815077269091800,1.397091796875,0.6483931541442871,0.6578452587127686,0.47782862186431885
1701815077279043800,1.4070439453125,0.6273861527442932,0.7947139143943787,0.5720533728599548
1701815077288996900,1.416996826171875,0.6112322211265564,0.9625657200813293,0.5415274500846863
1701815077298950000,1.426949951171875,0.6154733300209045,1.0690397024154663,0.43252745270729065
1701815077308902100,1.436902099609375,0.5892752408981323,1.097973346710205,0.33571648597717285
1701815077318855200,1.446855224609375,0.621945858001709,0.9659021496772766,0.4041493535041809
1701815077328807000,1.456806884765625,0.6726979613304138,0.8559836149215698,0.49184590578079224
1701815077338760000,1.466760009765625,0.6457587480545044,0.8012343645095825,0.5661568641662598
1701815077348712000,1.4767119140625,0.6330472230911255,0.7091430425643921,0.5852229595184326
1701815077358665000,1.4866650390625,0.6612602472305298,0.560306191444397,0.5370229482650757
1701815077368617000,1.496616943359375,0.6402116417884827,0.41254228353500366,0.40566202998161316
1701815077378570000,1.506570068359375,0.5960437059402466,0.3176557123661041,0.2886776030063629
1701815077388522000,1.51652197265625,0.5698496103286743,0.2839291989803314,0.18111811578273773
1701815077398475000,1.52647509765625,0.5568962693214417,0.23848260939121246,0.047676440328359604
1701815077408427000,1.536427001953125,0.5232613682746887,0.171010360121727,-0.09160555154085159
1701815077418380000,1.546380126953125,0.5008644461631775,0.1368292272090912,-0.19907155632972717
1701815077428331800,1.556331787109375,0.5105250477790833,0.14357580244541168,-0.26189711689949036
1701815077438284800,1.566284912109375,0.5128287076950073,0.16663771867752075,-0.28142502903938293
1701815077448237000,1.576237060546875,0.503301739692688,0.16671255230903625,-0.24983033537864685
1701815077458190000,1.586190185546875,0.5360831618309021,0.12739816308021545,-0.17988428473472595
1701815077468143000,1.59614306640625,0.5726725459098816,0.10443426668643951,-0.12212350964546204
1701815077478095000,1.60609521484375,0.5806519389152527,0.07669557631015778,-0.07258525490760803
1701815077488048000,1.616048095703125,0.5962545871734619,0.03782940283417702,0.009505088441073895
1701815077498000000,1.625999755859375,0.6190603375434875,0.041852109134197235,0.07076817750930786
1701815077507953000,1.635952880859375,0.6418823003768921,0.05706168711185455,0.10614348202943802
1701815077517905000,1.64590478515625,0.6625838279724121,0.0796000212430954,0.10997577011585236
1701815077527858000,1.65585791015625,0.6809487342834473,0.13307443261146545,0.10245367139577866
1701815077537810000,1.665809814453125,0.6966930627822876,0.2167123407125473,0.10201504826545715
1701815077547763000,1.675762939453125,0.7077824473381042,0.30545446276664734,0.08544512838125229
1701815077557715000,1.68571484375,0.7646769285202026,0.3081604838371277,0.02280677855014801
1701815077567668000,1.69566796875,0.8004657626152039,0.2592936158180237,-0.08090150356292725
1701815077577620000,1.705619873046875,0.798952043056488,0.13125576078891754,-0.1601867377758026
1701815077587573000,1.715572998046875,0.7943788766860962,-0.014551778323948383,-0.19963347911834717
1701815077597525000,1.72552490234375,0.7737769484519958,-0.11090867221355438,-0.20242048799991608
1701815077607478000,1.73547802734375,0.7464805841445923,-0.13756798207759857,-0.18344439566135406
1701815077617430000,1.745429931640625,0.7247071266174316,-0.12826663255691528,-0.12412328273057938
1701815077627383000,1.755383056640625,0.6855146884918213,-0.05601746216416359,-0.05637778714299202
1701815077637335000,1.7653349609375,0.6695820689201355,0.032457541674375534,-0.02250797301530838
1701815077647287800,1.775287841796875,0.7143969535827637,0.08963028341531754,-0.02178785391151905
1701815077657240800,1.78524072265625,0.7762547135353088,0.13111035525798798,-0.027049994096159935
1701815077667192800,1.79519287109375,0.8405149579048157,0.14539209008216858,0.002272741636261344
1701815077677145900,1.805145751953125,0.8991601467132568,0.15443457663059235,0.042325884103775024
1701815077687098000,1.81509814453125,0.9357234835624695,0.1803644448518753,0.07177005708217621
1701815077697051100,1.825051025390625,0.9602413177490234,0.19887128472328186,0.1052960604429245
1701815077707003000,1.8350029296875,0.9934312701225281,0.21155644953250885,0.12574727833271027
1701815077716956000,1.844955810546875,1.0433402061462402,0.2500993311405182,0.1334315538406372
1701815077726908000,1.854907958984375,1.0973283052444458,0.3057655096054077,0.12641440331935883
1701815077736861000,1.86486083984375,1.1420880556106567,0.35618555545806885,0.10086403042078018
1701815077746813000,1.87481298828125,1.2040750980377197,0.38910752534866333,0.06537874042987823
1701815077756766000,1.884765869140625,1.2867156267166138,0.4076370298862457,0.03791196271777153
1701815077766718000,1.894718017578125,1.3608657121658325,0.36633777618408203,0.022618493065238
1701815077776671000,1.9046708984375,1.4253461360931396,0.24242781102657318,-0.004632036201655865
1701815077786623000,1.914623046875,1.4986894130706787,0.0715588703751564,-0.02755333110690117
1701815077796576000,1.924575927734375,1.5357173681259155,-0.0632639229297638,-0.028315527364611626
1701815077806527700,1.93452783203125,1.5169436931610107,-0.12710069119930267,-0.005659217480570078
1701815077816480800,1.944480712890625,1.4590204954147339,-0.11329007148742676,0.03278324753046036
1701815077826433800,1.954433837890625,1.3780508041381836,-0.06638648360967636,0.0686163455247879
1701815077836386000,1.964385986328125,1.2857704162597656,-0.0737418681383133,0.0978168398141861
1701815077846339000,1.974339111328125,1.2032678127288818,-0.12726368010044098,0.09442317485809326
1701815077856290800,1.984290771484375,1.1446034908294678,-0.18112291395664215,0.056227587163448334
1701815077866243800,1.994243896484375,1.1330804824829102,-0.2450457066297531,0.020596621558070183
1701815077876195800,2.00419580078125,1.1539593935012817,-0.2504383325576782,0.03555532917380333
1701815077886148900,2.01414892578125,1.1706938743591309,-0.1472509652376175,0.1229722648859024
1701815077896101000,2.02410107421875,1.1727051734924316,0.03642245754599571,0.2714384198188782
1701815077906054100,2.03405419921875,1.1663795709609985,0.2294188141822815,0.4274978041648865
1701815077916006000,2.044005859375,1.126144289970398,0.44234251976013184,0.5638015866279602
1701815077925959000,2.053958984375,1.0368298292160034,0.6642509698867798,0.6627603769302368
1701815077935911000,2.063910888671875,0.9246167540550232,0.7999781370162964,0.7424141764640808
1701815077945864000,2.073864013671875,0.8324098587036133,0.8627736568450928,0.7924227714538574
1701815077955816000,2.08381591796875,0.7650721073150635,0.911699116230011,0.798427402973175
1701815077965768700,2.093768798828125,0.7074729800224304,0.8821499943733215,0.7828761339187622
1701815077975721000,2.103720947265625,0.6605288982391357,0.793501079082489,0.7247380018234253
1701815077985674000,2.113674072265625,0.6403120756149292,0.692995011806488,0.6237991452217102
1701815077995627000,2.123626953125,0.6205780506134033,0.5590597987174988,0.5160473585128784
1701815078005579000,2.1335791015625,0.5897945761680603,0.38161954283714294,0.42725464701652527
1701815078015532000,2.143531982421875,0.5353140234947205,0.20145508646965027,0.35293489694595337
1701815078025483800,2.15348388671875,0.4841877222061157,0.0590425468981266,0.28758543729782104
1701815078035436800,2.163436767578125,0.45438507199287415,-0.00199364242143929,0.22794954478740692
1701815078045389000,2.17338916015625,0.47352415323257446,0.01689722388982773,0.16478176414966583
1701815078055342000,2.183342041015625,0.5425218343734741,0.09847304224967957,0.0996893122792244
1701815078065294000,2.193294189453125,0.6129488945007324,0.15899658203125,0.048408810049295425
1701815078075246800,2.203246826171875,0.633369505405426,0.16753093898296356,0.02154790237545967
1701815078085198800,2.21319873046875,0.612683892250061,0.2834567427635193,0.0009890979854390025
1701815078095151900,2.22315185546875,0.5803486108779907,0.557318389415741,-0.006283728405833244
1701815078105104000,2.233103759765625,0.5985827445983887,0.866197943687439,0.015272163785994053
1701815078115057000,2.243056884765625,0.7099851369857788,1.0641602277755737,0.0731988474726677
1701815078125009000,2.2530087890625,0.8131206035614014,1.2095036506652832,0.1612381637096405
1701815078134962000,2.2629619140625,0.8324985504150391,1.2601537704467773,0.2854514420032501
1701815078144915000,2.2729150390625,0.811730682849884,1.2175415754318237,0.4067866802215576
1701815078154867000,2.282866943359375,0.7690338492393494,1.125914454460144,0.47653859853744507
1701815078164820000,2.292820068359375,0.6910263895988464,0.943973958492279,0.5042943358421326
1701815078174772000,2.30277197265625,0.6093549728393555,0.6731480360031128,0.5036618113517761
1701815078184724700,2.312724853515625,0.5411026477813721,0.40458449721336365,0.4638286530971527
1701815078194677000,2.322677001953125,0.4776347279548645,0.18717814981937408,0.38191941380500793
1701815078204630000,2.332630126953125,0.4174869954586029,0.03495665267109871,0.2625695765018463
1701815078214582000,2.34258203125,0.3457563519477844,-0.027107784524559975,0.12140312790870667
1701815078224535000,2.35253515625,0.24409842491149902,0.04988020658493042,-0.032827455550432205
1701815078234486800,2.36248681640625,0.13444969058036804,0.21854884922504425,-0.1751667559146881
1701815078244439800,2.372439697265625,0.07199110090732574,0.3220086693763733,-0.2898419499397278
1701815078254391800,2.382391845703125,0.07813102006912231,0.2880006432533264,-0.36280617117881775
1701815078264344800,2.3923447265625,0.11030253767967224,0.1660962998867035,-0.3981660008430481
1701815078274297000,2.402297119140625,0.16017742455005646,0.029700370505452156,-0.40751558542251587
1701815078284250000,2.41225,0.27402248978614807,0.007288272958248854,-0.27056118845939636
1701815078294203000,2.422202880859375,0.3554379940032959,0.07359965145587921,-0.10050423443317413
1701815078304155000,2.43215478515625,0.374112069606781,0.12451689690351486,0.05698951706290245
1701815078314108000,2.44210791015625,0.42421653866767883,0.048349156975746155,0.2118866890668869
1701815078324060000,2.452059814453125,0.42958173155784607,-0.09724771976470947,0.29021531343460083
1701815078334013000,2.462012939453125,0.3928556740283966,-0.20393235981464386,0.2881782650947571
1701815078343965000,2.47196484375,0.34495845437049866,-0.2290656715631485,0.23856517672538757
1701815078353918000,2.48191796875,0.3284151554107666,-0.1160493716597557,0.19926117360591888
1701815078363870000,2.491869873046875,0.35604438185691833,0.11384134739637375,0.1810576617717743
1701815078373823000,2.501822998046875,0.40266117453575134,0.33386772871017456,0.16491305828094482
1701815078383775000,2.51177490234375,0.43614667654037476,0.4680604040622711,0.15376558899879456
1701815078393728000,2.52172802734375,0.46129998564720154,0.4650353193283081,0.14773645997047424
1701815078403679700,2.5316796875,0.4744695723056793,0.326852947473526,0.15259087085723877
1701815078413632800,2.5416328125,0.46713656187057495,0.09156240522861481,0.17439736425876617
1701815078423585800,2.551585693359375,0.46277323365211487,-0.21019531786441803,0.2210298478603363
1701815078433538000,2.5615380859375,0.5115761756896973,-0.5412757396697998,0.2951642572879791
1701815078443491000,2.571490966796875,0.6073317527770996,-0.7961751818656921,0.3844693899154663
1701815078453442800,2.58144287109375,0.7546042799949646,-0.9470416307449341,0.4663322865962982
1701815078463395800,2.591395751953125,0.9157175421714783,-0.9991130828857422,0.5214413404464722
1701815078473347800,2.601347900390625,1.0351052284240723,-0.8967307806015015,0.5286366939544678
1701815078483300900,2.61130078125,1.0771794319152832,-0.6222259998321533,0.4654393196105957
1701815078493253000,2.621253173828125,1.0225156545639038,-0.20220743119716644,0.3135824203491211
1701815078503206000,2.631205810546875,0.8770170211791992,0.2455144226551056,0.11719825863838196
1701815078513158000,2.641157958984375,0.65325528383255,0.6296280026435852,-0.0024857944808900356
1701815078523111000,2.65111083984375,0.5494077205657959,0.7040572166442871,-0.0768822655081749
1701815078533063000,2.66106298828125,0.5652077198028564,0.5557417869567871,-0.11890721321105957
1701815078543016000,2.671015869140625,0.5508322715759277,0.43328219652175903,-0.11237980425357819
1701815078552968000,2.680968017578125,0.46937307715415955,0.35998639464378357,-0.09063935279846191
1701815078562920700,2.690920654296875,0.3453347682952881,0.28029343485832214,-0.09555448591709137
1701815078572873700,2.700873779296875,0.22568371891975403,0.20136161148548126,-0.14533989131450653
1701815078582826000,2.710825927734375,0.1558481901884079,0.044830322265625,-0.20207346975803375
1701815078592779000,2.720779052734375,0.14277713000774384,-0.0057585532777011395,-0.2529028356075287
1701815078602731000,2.73073095703125,0.14491750299930573,0.028795428574085236,-0.2819714844226837
1701815078612684000,2.74068408203125,0.11246103048324585,0.057609766721725464,-0.2717774510383606
1701815078622635800,2.7506357421875,0.08946490287780762,0.14747121930122375,-0.24594904482364655
1701815078632588800,2.7605888671875,0.12011335790157318,0.19666671752929688,-0.20891912281513214
1701815078642541000,2.770541015625,0.16157211363315582,0.14054299890995026,-0.17394649982452393
1701815078652494000,2.780494140625,0.18356476724147797,0.04692569747567177,-0.1576641947031021
1701815078662446000,2.790446044921875,0.20268119871616364,-0.02383049763739109,-0.14521977305412292
1701815078672398800,2.80039892578125,0.22395826876163483,-0.06729301810264587,-0.11010599881410599
1701815078682350800,2.810350830078125,0.2438773810863495,-0.07123156636953354,-0.05667180195450783
1701815078692304000,2.820303955078125,0.2657400667667389,-0.06788051128387451,0.0016053534345701337
1701815078702257000,2.8302568359375,0.28128334879875183,-0.026730947196483612,0.04277968779206276
1701815078712209400,2.84020947265625,0.2762070894241333,0.08746752887964249,0.052983324974775314
1701815078722162400,2.850162353515625,0.25660356879234314,0.1726926863193512,0.06933166831731796
1701815078732114400,2.860114501953125,0.24220438301563263,0.17562562227249146,0.09178158640861511
1701815078742067500,2.8700673828125,0.22899429500102997,0.1574074625968933,0.10759969800710678
1701815078752019700,2.880019775390625,0.210049107670784,0.127916157245636,0.09656355530023575
1701815078761972500,2.889972412109375,0.1871030479669571,0.08013372123241425,0.0723642110824585
1701815078771924500,2.899924560546875,0.17280399799346924,0.019220033660531044,0.05271141603589058
1701815078781877500,2.90987744140625,0.168300062417984,-0.02979091927409172,0.04230138286948204
1701815078791829500,2.91982958984375,0.17184419929981232,-0.03183356299996376,0.02130022831261158
1701815078801782500,2.929782470703125,0.17574599385261536,0.0023752732668071985,-0.012278237380087376
1701815078811734500,2.939734619140625,0.17616517841815948,0.025014007464051247,-0.04453124850988388
1701815078821687600,2.9496875,0.16628538072109222,-0.006837399676442146,-0.071906678378582
1701815078831639600,2.9596396484375,0.1481737494468689,-0.05775304511189461,-0.1018291562795639
1701815078841592600,2.969592529296875,0.13774853944778442,-0.08287544548511505,-0.1318672150373459
1701815078851545600,2.979545654296875,0.12974761426448822,-0.09122471511363983,-0.15078204870224
1701815078861497600,2.98949755859375,0.12666472792625427,-0.15289020538330078,-0.14390923082828522
1701815078871450600,2.99945068359375,0.12334856390953064,-0.1373210996389389,-0.11498730629682541
1701815078881402400,3.00940234375,0.12125904858112335,-0.04249899089336395,-0.07875899225473404
1701815078891355400,3.01935546875,0.12383459508419037,-0.007684551179409027,-0.023028885945677757
1701815078901307600,3.0293076171875,0.14728133380413055,-0.015412512235343456,0.026738137006759644
1701815078911260700,3.0392607421875,0.16645582020282745,-0.05095319449901581,0.0621107742190361
1701815078921212400,3.04921240234375,0.16677673161029816,-0.10287045687437057,0.0956873744726181
1701815078931165400,3.05916552734375,0.1668073534965515,-0.14935699105262756,0.1050286814570427
1701815078941117400,3.069117431640625,0.1781225949525833,-0.1661335825920105,0.08337318897247314
1701815078951070500,3.079070556640625,0.2005900889635086,-0.16539135575294495,0.03772500902414322
1701815078961022700,3.089022705078125,0.21281853318214417,-0.1581592708826065,-0.003861583536490798
1701815078970975700,3.098975830078125,0.21957097947597504,-0.1434466391801834,-0.03019998036324978
1701815078980927500,3.108927490234375,0.21670034527778625,-0.1018880158662796,-0.030891336500644684
1701815078990880500,3.118880615234375,0.21562975645065308,-0.05344351753592491,0.00041545313433744013
1701815079000833500,3.12883349609375,0.22648561000823975,-0.0015755260828882456,0.032342225313186646
1701815079010785500,3.13878564453125,0.2309194952249527,-0.0012668657582253218,0.053038716316223145
1701815079020738600,3.148738525390625,0.21546117961406708,-0.0447847805917263,0.048658616840839386
1701815079030690300,3.158690185546875,0.19538360834121704,-0.08836288750171661,0.02364354394376278
1701815079040643300,3.168643310546875,0.1754639595746994,-0.13234472274780273,-0.0049039446748793125
1701815079050595600,3.178595703125,0.16969449818134308,-0.18128269910812378,-0.022052571177482605
1701815079060548600,3.188548583984375,0.15805648267269135,-0.2137777954339981,-0.026456907391548157
1701815079070500600,3.19850048828125,0.13801085948944092,-0.15542128682136536,-0.026568228378891945
1701815079080453600,3.20845361328125,0.11483710259199142,-0.1150759905576706,-0.011085141450166702
1701815079090405400,3.2184052734375,0.11918152123689651,-0.11183732002973557,0.01258024014532566
1701815079100358400,3.2283583984375,0.13672828674316406,-0.1059887483716011,0.03051609732210636
1701815079110310700,3.238310546875,0.14375050365924835,-0.10710887610912323,0.04418716952204704
1701815079120263700,3.248263671875,0.15039029717445374,-0.13034336268901825,0.0549151785671711
1701815079130215700,3.258215576171875,0.15297330915927887,-0.16944868862628937,0.07159482687711716
1701815079140168400,3.26816845703125,0.15602581202983856,-0.17924858629703522,0.08304055780172348
1701815079150121500,3.27812158203125,0.14838680624961853,-0.20678113400936127,0.10361640900373459
1701815079160073500,3.288073486328125,0.12830017507076263,-0.23209768533706665,0.1296629160642624
1701815079170026500,3.298026611328125,0.11026951670646667,-0.24131888151168823,0.1459481567144394
1701815079179978500,3.307978515625,0.10124752670526505,-0.23460239171981812,0.142243430018425
1701815079189931500,3.317931640625,0.10043951869010925,-0.23271925747394562,0.12002653628587723
1701815079199883500,3.327883544921875,0.10665560513734818,-0.23526258766651154,0.08865876495838165
1701815079209836500,3.33783642578125,0.1169029176235199,-0.21966683864593506,0.048164866864681244
1701815079219788500,3.34778857421875,0.12034105509519577,-0.18384040892124176,0.019116703420877457
1701815079229741600,3.357741455078125,0.12009524554014206,-0.14420804381370544,0.01581891067326069
1701815079239693600,3.367693603515625,0.10962609946727753,-0.1065906286239624,0.029028188437223434
1701815079249646600,3.377646484375,0.10088107734918594,-0.09866026043891907,0.05434819310903549
1701815079259598600,3.3875986328125,0.08087886869907379,-0.12372487038373947,0.07413893938064575
1701815079269551600,3.397551513671875,0.063453808426857,-0.1499471515417099,0.07695923000574112
1701815079279503600,3.407503662109375,0.05343925580382347,-0.14519420266151428,0.06423970311880112
1701815079289456600,3.41745654296875,0.05462969094514847,-0.11276116967201233,0.04718668758869171
1701815079299409700,3.42740966796875,0.060695305466651917,-0.07746443152427673,0.023014238104224205
1701815079309361400,3.437361328125,0.06310972571372986,-0.040948498994112015,0.007591873407363892
1701815079319314400,3.447314453125,0.06600192189216614,-0.012227904051542282,0.002034122357144952
1701815079329266400,3.457266357421875,0.07726789265871048,0.002832271857187152,-0.008653675206005573
1701815079339219500,3.467219482421875,0.08445309847593307,0.0067694890312850475,-0.015223960392177105
1701815079349171700,3.477171630859375,0.09169689565896988,-0.019334549084305763,-0.01624048873782158
1701815079359124700,3.487124755859375,0.08910510689020157,-0.053282663226127625,-0.018425611779093742
1701815079369076500,3.497076416015625,0.08691119402647018,-0.04922027513384819,-0.027169834822416306
1701815079379029500,3.507029541015625,0.09028861671686172,-0.029511019587516785,-0.032095350325107574
1701815079388981500,3.5169814453125,0.09794627130031586,-0.02449202723801136,-0.02839968353509903
1701815079398934500,3.5269345703125,0.09764772653579712,-0.026759974658489227,-0.014495053328573704
1701815079408886500,3.536886474609375,0.10034897178411484,-0.030298251658678055,0.007470166776329279
1701815079418839600,3.546839599609375,0.10795576125383377,-0.0313323549926281,0.03145299851894379
1701815079428791600,3.55679150390625,0.11633805930614471,-0.025496039539575577,0.043053459376096725
1701815079438744600,3.56674462890625,0.12689296901226044,-0.03514467179775238,0.031980570405721664
1701815079448697600,3.576697509765625,0.1425747275352478,-0.05408240854740143,0.007226487621665001
1701815079458649600,3.586649658203125,0.1651466190814972,-0.07450699061155319,-0.014482003636658192
1701815079468602600,3.5966025390625,0.17365621030330658,-0.08510956913232803,-0.021019797772169113
1701815079478554400,3.606554443359375,0.16235588490962982,-0.08225119858980179,-0.013033243827521801
1701815079488507400,3.61650732421875,0.1525416076183319,-0.055273909121751785,0.004047738388180733
1701815079498459600,3.626459716796875,0.15382231771945953,-0.024513332173228264,0.019060509279370308
1701815079508412700,3.63641259765625,0.16152657568454742,0.017375795170664787,0.03527063876390457
1701815079518364400,3.646364501953125,0.17050249874591827,0.04259193316102028,0.05104294419288635
1701815079528317400,3.6563173828125,0.17060716450214386,0.03374917432665825,0.057982608675956726
1701815079538269400,3.66626953125,0.1610855609178543,0.022101307287812233,0.0547386109828949
1701815079548222500,3.676222412109375,0.1485697627067566,-0.001359277404844761,0.04665698483586311
1701815079558174700,3.6861748046875,0.1315511018037796,-0.030790403485298157,0.03213689848780632
1701815079568127700,3.696127685546875,0.12242311984300613,-0.05710270255804062,0.01016688346862793
1701815079578079500,3.70607958984375,0.12754277884960175,-0.06636171042919159,-0.014992797747254372
1701815079588032500,3.716032470703125,0.13575489819049835,-0.058885153383016586,-0.029803968966007233
1701815079597984500,3.725984619140625,0.14910613000392914,-0.04015194624662399,-0.028933381661772728
1701815079607937500,3.7359375,0.16594237089157104,-0.03640354797244072,-0.012765330262482166
1701815079617890600,3.745890625,0.17981983721256256,-0.05468535050749779,0.00021278657368384302
1701815079627842600,3.755842529296875,0.19248715043067932,-0.0769650861620903,0.0026253440883010626
1701815079637795300,3.76579541015625,0.19160990417003632,-0.08016807585954666,-0.012092881835997105
1701815079647747600,3.77574755859375,0.18056604266166687,-0.0814724862575531,-0.03713005781173706
1701815079657700600,3.78570068359375,0.17172755300998688,-0.06925177574157715,-0.06267403066158295
1701815079667652600,3.795652587890625,0.17125163972377777,-0.024164458736777306,-0.08886222541332245
1701815079677605600,3.805605712890625,0.18075859546661377,0.02309866063296795,-0.10497275739908218
1701815079687557400,3.815557373046875,0.19715940952301025,0.05095932260155678,-0.11192253977060318
1701815079697510400,3.825510498046875,0.21101637184619904,0.07860080152750015,-0.1090330109000206
1701815079707462100,3.835462158203125,0.20713533461093903,0.11183252185583115,-0.09002496302127838
1701815079717415200,3.845415283203125,0.18874675035476685,0.16174815595149994,-0.06994526088237762
1701815079727367200,3.8553671875,0.16639935970306396,0.21048453450202942,-0.057922154664993286
1701815079737320000,3.86531982421875,0.1296384185552597,0.24637968838214874,-0.05368107184767723
1701815079747272000,3.87527197265625,0.08623155951499939,0.25271135568618774,-0.03951598331332207
1701815079757225000,3.885224853515625,0.04802984371781349,0.2231566458940506,-0.019224826246500015
1701815079767177200,3.89517724609375,-0.0030064424499869347,0.13678261637687683,0.0034938009921461344
1701815079777130200,3.905130126953125,-0.050910584628582,0.018163558095693588,0.020001670345664024
1701815079787083300,3.915083251953125,-0.07596027851104736,-0.09732601791620255,0.03617637977004051
1701815079797035000,3.925034912109375,-0.08813092112541199,-0.2031714916229248,0.051843754947185516
1701815079806988000,3.934988037109375,-0.09855293482542038,-0.23691187798976898,0.07202412933111191
1701815079816940000,3.94493994140625,-0.10104752331972122,-0.2042740434408188,0.08853811770677567
1701815079826893000,3.95489306640625,-0.08322271704673767,-0.1118096187710762,0.08954746276140213
1701815079836845000,3.964844970703125,-0.06793989986181259,-0.0014394385507330298,0.07536612451076508
1701815079846797800,3.9747978515625,-0.052556417882442474,0.09599444270133972,0.054597463458776474
1701815079856750000,3.98475,-0.041434526443481445,0.16458894312381744,0.03093554452061653
1701815079866703000,3.994703125,-0.028844963759183884,0.20859581232070923,-0.003721501212567091
1701815079876655000,4.004655029296875,-0.019531089812517166,0.23918169736862183,-0.04430168494582176
1701815079886608100,4.014608154296875,-0.0031156321056187153,0.2716778516769409,-0.08296119421720505
1701815079896559900,4.024559814453125,0.02570376545190811,0.37752944231033325,-0.10813179612159729
1701815079906513000,4.034512939453125,0.06582082808017731,0.5523393154144287,-0.10162302851676941
1701815079916465200,4.044465087890625,0.1036909744143486,0.7058159708976746,-0.05646301060914993
1701815079926418200,4.054418212890625,0.14227591454982758,0.8464434146881104,0.013279852457344532
1701815079936370200,4.0643701171875,0.17033737897872925,0.9630014300346375,0.08025781810283661
1701815079946323200,4.0743232421875,0.19191192090511322,1.023116946220398,0.12364630401134491
1701815079956275000,4.08427490234375,0.20794148743152618,1.0221678018569946,0.1270226687192917
1701815079966228000,4.09422802734375,0.22775140404701233,0.9765020608901978,0.08977382630109787
1701815079976181000,4.104180908203125,0.2525550127029419,0.8810077905654907,0.03925206512212753
1701815079986133000,4.114133056640625,0.25935009121894836,0.7452816367149353,0.00031558459158986807
1701815079996086000,4.1240859375,0.2593735158443451,0.6104247570037842,-0.036253612488508224
1701815080006038000,4.1340380859375,0.25958070158958435,0.4981357455253601,-0.09232860058546066
1701815080015991000,4.143990966796875,0.259040892124176,0.3917243480682373,-0.15011253952980042
1701815080025943000,4.153943115234375,0.2665392756462097,0.3085538446903229,-0.19630959630012512
1701815080035896000,4.16389599609375,0.2792971432209015,0.21745988726615906,-0.22555217146873474
1701815080045848000,4.17384814453125,0.2767066955566406,0.09828049689531326,-0.26321297883987427
1701815080055801000,4.183801025390625,0.25825896859169006,-0.012870525009930134,-0.30994001030921936
1701815080065753000,4.193753173828125,0.2330593466758728,-0.1082785353064537,-0.33722251653671265
1701815080075706000,4.2037060546875,0.20778967440128326,-0.18317247927188873,-0.3266622722148895
1701815080085658000,4.213658203125,0.17917481064796448,-0.2130395770072937,-0.2936140298843384
1701815080095611100,4.223611083984375,0.1450413465499878,-0.20408283174037933,-0.24115616083145142
1701815080105563100,4.233563232421875,0.11465653777122498,-0.1960749626159668,-0.16235828399658203
1701815080115516000,4.243515869140625,0.09334459155797958,-0.17689567804336548,-0.07600448280572891
1701815080125468000,4.253468017578125,0.09110168367624283,-0.13840554654598236,-0.017723070457577705
1701815080135421000,4.2634208984375,0.08955837786197662,-0.08048951625823975,0.0065404572524130344
1701815080145374000,4.2733740234375,0.0891551747918129,-0.008124505169689655,-0.0024194817524403334
1701815080155326200,4.283326171875,0.09099835157394409,0.05073747783899307,-0.0113975303247571
1701815080165279200,4.293279296875,0.0941411480307579,0.07465213537216187,-0.03852555528283119
1701815080175231000,4.30323095703125,0.09248386323451996,0.0630016028881073,-0.08781453967094421
1701815080185184000,4.31318408203125,0.0784175768494606,0.01480397954583168,-0.1339556723833084
1701815080195136000,4.323135986328125,0.0732521116733551,-0.011619371362030506,-0.17096641659736633
1701815080205089000,4.333089111328125,0.0856776237487793,-0.023858994245529175,-0.17183487117290497
1701815080215041300,4.343041259765625,0.09553557634353638,-0.0332048237323761,-0.16041603684425354
1701815080224994000,4.352994140625,0.10800609737634659,-0.027105920016765594,-0.15380261838436127
1701815080234946000,4.362946044921875,0.13199159502983093,-0.04105715453624725,-0.14858122169971466
1701815080244899000,4.372899169921875,0.14616866409778595,-0.0983249694108963,-0.1488344818353653
1701815080254851000,4.38285107421875,0.15344788134098053,-0.15574805438518524,-0.15724767744541168
1701815080264804000,4.39280419921875,0.15025687217712402,-0.1949993222951889,-0.1716441959142685
1701815080274755800,4.402755859375,0.14856204390525818,-0.20620962977409363,-0.18313786387443542
1701815080284708900,4.412708984375,0.14842303097248077,-0.1563323438167572,-0.1989293396472931
1701815080294661000,4.4226611328125,0.15646390616893768,-0.09529615938663483,-0.1948605626821518
1701815080304614100,4.4326142578125,0.17011207342147827,-0.0580715574324131,-0.16617432236671448
1701815080314566100,4.442566162109375,0.1687389463186264,-0.028326179832220078,-0.10968735069036484
1701815080324519200,4.452519287109375,0.16691015660762787,-0.013054815120995045,-0.042391665279865265
1701815080334472000,4.462471923828125,0.19714981317520142,-0.006340986583381891,0.009047291241586208
1701815080344424000,4.472423828125,0.262671560049057,-0.004231763072311878,0.03852741792798042
1701815080354377000,4.482376953125,0.38559508323669434,-0.023681893944740295,0.04976915568113327
1701815080364329200,4.4923291015625,0.5421428680419922,-0.01979234628379345,0.048173919320106506
1701815080374282200,4.5022822265625,0.7353818416595459,0.04246916249394417,0.03236779198050499
1701815080384234000,4.51223388671875,0.9296069741249084,0.14978763461112976,0.009226521477103233
1701815080394187000,4.52218701171875,1.122015357017517,0.23488068580627441,-0.018817096948623657
1701815080404139000,4.532138916015625,1.3050367832183838,0.2867417633533478,-0.04876168072223663
1701815080414092000,4.542092041015625,1.4527610540390015,0.3372102677822113,-0.06404583156108856
1701815080424044000,4.5520439453125,1.5580179691314697,0.40267422795295715,-0.07095114141702652
1701815080433997000,4.5619970703125,1.5679643154144287,0.33420753479003906,-0.062001317739486694
1701815080443949000,4.571948974609375,1.434655785560608,0.2190266251564026,-0.03398273512721062
1701815080453902000,4.581902099609375,1.1433850526809692,0.12494432926177979,0.00364693277515471
1701815080463854000,4.59185400390625,0.7026212811470032,-0.059851083904504776,0.037512220442295074
1701815080473807000,4.60180712890625,0.21821436285972595,-0.23791003227233887,-0.0005917543894611299
1701815080483760000,4.611760009765625,-0.1603313535451889,-0.4343429207801819,-0.21738505363464355
1701815080493712000,4.6217119140625,-0.44404590129852295,-0.6272426247596741,-0.45907118916511536
1701815080503665000,4.631664794921875,-0.6285470128059387,-0.8521302938461304,-0.6201317310333252
1701815080513617200,4.6416171875,-0.6643041968345642,-1.032836675643921,-0.7187235355377197
1701815080523570200,4.651570068359375,-0.5955227613449097,-1.0520915985107422,-0.749851644039154
1701815080533522200,4.661522216796875,-0.5032863020896912,-0.9226758480072021,-0.6806922554969788
1701815080543475200,4.67147509765625,-0.38785743713378906,-0.700546383857727,-0.5507888197898865
1701815080553427000,4.681427001953125,-0.24795520305633545,-0.3974435031414032,-0.382997989654541
1701815080563380000,4.6913798828125,-0.09316429495811462,-0.07239004224538803,-0.17847546935081482
1701815080573332000,4.70133203125,0.06817692518234253,0.2209526151418686,0.03579341620206833
1701815080583285000,4.711284912109375,0.2081201821565628,0.4429124593734741,0.2099393904209137
1701815080593237200,4.7212373046875,0.31580641865730286,0.5931557416915894,0.3163297474384308
1701815080603190000,4.73118994140625,0.39975404739379883,0.6645990610122681,0.35297536849975586
1701815080613142000,4.74114208984375,0.4700061082839966,0.661171019077301,0.3391557037830353
1701815080623095000,4.751094970703125,0.4920555055141449,0.573531448841095,0.2967584431171417
1701815080633047000,4.761047119140625,0.4398215711116791,0.4349544048309326,0.24826467037200928
1701815080643000000,4.771,0.32752886414527893,0.2789536118507385,0.20923471450805664
1701815080652953000,4.780953125,0.19668909907341003,0.15094716846942902,0.15659546852111816
1701815080662905900,4.79090576171875,0.1121334657073021,0.05137104541063309,0.07724232226610184
1701815080672858000,4.800858154296875,0.07430245727300644,-0.017675133422017097,-0.0004972121678292751
1701815080682811100,4.81081103515625,0.09493529796600342,-0.0484924353659153,-0.03972477465867996
1701815080692763100,4.82076318359375,0.22032225131988525,-0.05655009299516678,-0.01383884996175766
1701815080702716200,4.830716064453125,0.3135400712490082,-0.04754061996936798,0.08336013555526733
1701815080712668700,4.840668701171875,0.30832162499427795,0.006591057404875755,0.17396700382232666
1701815080722621700,4.85062158203125,0.2936380207538605,0.07780611515045166,0.21148215234279633
1701815080732574700,4.86057470703125,0.3091599643230438,0.14019066095352173,0.20501387119293213
1701815080742526700,4.870526611328125,0.3433168828487396,0.12348758429288864,0.18526892364025116
1701815080752479500,4.8804794921875,0.3742750585079193,0.09588125348091125,0.13875281810760498
1701815080762431700,4.890431640625,0.4084482192993164,0.061713699251413345,0.07183744013309479
1701815080772384800,4.900384765625,0.439489483833313,0.04554245248436928,0.0003528688393998891
1701815080782336800,4.910336669921875,0.45954230427742004,0.03383572772145271,-0.05745743215084076
1701815080792289800,4.920289794921875,0.460967093706131,0.006156429648399353,-0.09304045885801315
1701815080802241500,4.930241455078125,0.4332750141620636,-0.0031100395135581493,-0.10245313495397568
1701815080812194600,4.940194580078125,0.4199906289577484,0.028310466557741165,-0.08434044569730759
1701815080822146600,4.950146484375,0.4463370144367218,0.07355411350727081,-0.04542846605181694
1701815080832099600,4.960099609375,0.4770091772079468,0.13926361501216888,0.008843825198709965
1701815080842051800,4.9700517578125,0.496195912361145,0.1850832998752594,0.05024772509932518
1701815080852004900,4.9800048828125,0.4950310289859772,0.21791741251945496,0.06560298055410385
1701815080861956600,4.98995654296875,0.4742208421230316,0.24454262852668762,0.05241473764181137
1701815080871909600,4.99990966796875,0.443598210811615,0.26827272772789,0.01745808683335781
1701815080881862700,5.009862548828125,0.40317514538764954,0.2621559798717499,-0.022652314975857735
1701815080891814700,5.019814697265625,0.36136192083358765,0.24453385174274445,-0.07245209813117981
1701815080901767700,5.029767578125,0.3223700523376465,0.20533131062984467,-0.13955630362033844
1701815080911719700,5.0397197265625,0.2893497943878174,0.1587347835302353,-0.22974450886249542
1701815080921672700,5.049672607421875,0.25776469707489014,0.12989860773086548,-0.3209782838821411
1701815080931624700,5.059624755859375,0.23344577848911285,0.12148062139749527,-0.3919435441493988
1701815080941577700,5.06957763671875,0.2285522222518921,0.16349811851978302,-0.44530928134918213
1701815080951529700,5.07952978515625,0.25637584924697876,0.1993112415075302,-0.47430577874183655
1701815080961482800,5.089482666015625,0.3189404308795929,0.2056807279586792,-0.45471450686454773
1701815080971434500,5.0994345703125,0.3931896388530731,0.202821284532547,-0.39145350456237793
1701815080981387500,5.109387451171875,0.4590328335762024,0.21311946213245392,-0.30801162123680115
1701815080991339800,5.11933984375,0.5097732543945312,0.2555350959300995,-0.22004927694797516
1701815081001292800,5.129292724609375,0.5401135683059692,0.3136250376701355,-0.1533527970314026
1701815081011245800,5.139245849609375,0.5432577133178711,0.3654962182044983,-0.11306024342775345
1701815081021197600,5.149197509765625,0.532431960105896,0.386965811252594,-0.07959283143281937
1701815081031150600,5.159150634765625,0.5127679705619812,0.4118719696998596,-0.044439371675252914
1701815081041102600,5.1691025390625,0.4713877737522125,0.43636825680732727,-0.027992751449346542
1701815081051055600,5.1790556640625,0.4219890534877777,0.4621945321559906,-0.03629568964242935
1701815081061007600,5.189007568359375,0.40166619420051575,0.48223748803138733,-0.0853324756026268
1701815081070960600,5.198960693359375,0.4456150233745575,0.5068783760070801,-0.20319439470767975
1701815081080912600,5.20891259765625,0.5766460299491882,0.5370490550994873,-0.37969937920570374
1701815081090865700,5.21886572265625,0.7711992263793945,0.5736427903175354,-0.594298243522644
1701815081100817700,5.228817626953125,0.9869691133499146,0.611716091632843,-0.7860943078994751
1701815081110770700,5.238770751953125,1.1640576124191284,0.5930857062339783,-0.9128583669662476
1701815081120722700,5.24872265625,1.264665961265564,0.5440912842750549,-0.9490283727645874
1701815081130675500,5.258675537109375,1.256380319595337,0.495527982711792,-0.8706126809120178
1701815081140628500,5.26862841796875,1.149600625038147,0.4328550100326538,-0.674620509147644
1701815081150580700,5.278580810546875,0.9921931624412537,0.3663513660430908,-0.3873397409915924
1701815081160533800,5.28853369140625,0.8363252282142639,0.2775980532169342,-0.04397331550717354
1701815081170485800,5.29848583984375,0.7035549283027649,0.1913824826478958,0.3020453453063965
1701815081180438800,5.308438720703125,0.5918201804161072,0.11243359744548798,0.5905421376228333
1701815081190390500,5.318390625,0.4961216151714325,0.01950392685830593,0.7753894925117493
1701815081200343600,5.328343505859375,0.4260980486869812,-0.06232196465134621,0.8384919762611389
1701815081210295600,5.338295654296875,0.4095739424228668,-0.18705643713474274,0.8058270215988159
1701815081220248600,5.34824853515625,0.4352838099002838,-0.2732381820678711,0.6810278296470642
1701815081230200800,5.358200927734375,0.4919436275959015,-0.3167100250720978,0.502249002456665
1701815081240153900,5.36815380859375,0.5679899454116821,-0.3298428952693939,0.3184695839881897
1701815081250105600,5.378105712890625,0.6319750547409058,-0.30674421787261963,0.18904554843902588
1701815081260058600,5.38805859375,0.6642163395881653,-0.3070265054702759,0.16441769897937775
1701815081270011600,5.39801171875,0.6448889970779419,-0.3464452922344208,0.23275388777256012
1701815081279963600,5.407963623046875,0.5970604419708252,-0.3641987144947052,0.3422870337963104
1701815081289916700,5.417916748046875,0.549177348613739,-0.3442452549934387,0.4578394591808319
1701815081299868700,5.42786865234375,0.5152817368507385,-0.29538875818252563,0.5568099617958069
1701815081309821700,5.43782177734375,0.48980966210365295,-0.23779870569705963,0.6289395689964294
1701815081319773700,5.447773681640625,0.4682670831680298,-0.19067834317684174,0.6716585159301758
1701815081329726700,5.457726806640625,0.45747461915016174,-0.1586138755083084,0.6900894641876221
1701815081339678700,5.4676787109375,0.45975932478904724,-0.13905268907546997,0.6858747601509094
1701815081349631700,5.4776318359375,0.46786412596702576,-0.13059529662132263,0.6612991094589233
1701815081359583700,5.487583740234375,0.472849577665329,-0.10008345544338226,0.6014254093170166
1701815081369536500,5.49753662109375,0.4753929078578949,-0.014155233278870583,0.5135128498077393
1701815081379488800,5.50748876953125,0.4618845283985138,0.0934242233633995,0.4192121922969818
1701815081389441800,5.51744189453125,0.40650278329849243,0.18704313039779663,0.3644160330295563
1701815081399394800,5.527394775390625,0.31715479493141174,0.25928348302841187,0.3863748610019684
1701815081409346600,5.5373466796875,0.2045653909444809,0.292107492685318,0.4903862178325653
1701815081419299600,5.547299560546875,0.09077517688274384,0.3315827250480652,0.6270111799240112
1701815081429251600,5.55725146484375,0.00788242369890213,0.3636392056941986,0.7567105889320374
1701815081439204600,5.56720458984375,-0.02756345085799694,0.3786913752555847,0.8387292623519897
1701815081449156900,5.577156982421875,-0.01044491771608591,0.3993101119995117,0.838707447052002
1701815081459110000,5.58710986328125,0.04466227814555168,0.454500675201416,0.776168704032898
1701815081469061600,5.5970615234375,0.12606684863567352,0.5316686630249023,0.6814454197883606
1701815081479014700,5.6070146484375,0.22041653096675873,0.5988264083862305,0.5954503417015076
1701815081488966700,5.616966552734375,0.32956910133361816,0.6225016713142395,0.5319019556045532
1701815081498919700,5.626919677734375,0.4510952830314636,0.6026323437690735,0.5004580616950989
1701815081508872700,5.636872802734375,0.5782143473625183,0.5399506092071533,0.5005608201026917
1701815081518824700,5.64682470703125,0.7003125548362732,0.4449431002140045,0.5247319340705872
1701815081528777500,5.656777587890625,0.8026384115219116,0.2981283664703369,0.5537151098251343
1701815081538729700,5.666729736328125,0.8761357665061951,0.0935126394033432,0.5670322775840759
1701815081548682800,5.676682861328125,0.9019801616668701,-0.14231133460998535,0.5310415029525757
1701815081558634800,5.686634765625,0.882560133934021,-0.37367796897888184,0.4496566355228424
1701815081568587800,5.696587890625,0.8387047648429871,-0.5765711665153503,0.3430851995944977
1701815081578539500,5.70653955078125,0.7790084481239319,-0.7278221845626831,0.24971795082092285
1701815081588492500,5.716492431640625,0.7182409763336182,-0.7739159464836121,0.1778450906276703
1701815081598444800,5.72644482421875,0.6529554128646851,-0.7650159001350403,0.13729554414749146
1701815081608397800,5.736397705078125,0.5759602189064026,-0.7325549125671387,0.11476093530654907
1701815081618349800,5.746349853515625,0.5006923675537109,-0.6801010370254517,0.0950293093919754
1701815081628302600,5.756302490234375,0.44763582944869995,-0.6058957576751709,0.06368683278560638
1701815081638255600,5.766255615234375,0.42253607511520386,-0.500901997089386,0.012061722576618195
1701815081648207600,5.77620751953125,0.40283000469207764,-0.37700772285461426,-0.08257929980754852
1701815081658160600,5.78616064453125,0.3847154676914215,-0.244623601436615,-0.22730931639671326
1701815081668112600,5.796112548828125,0.372913122177124,-0.11891147494316101,-0.419954389333725
1701815081678065700,5.806065673828125,0.3709162771701813,0.030047914013266563,-0.650189220905304
1701815081688017700,5.816017578125,0.39949679374694824,0.22532792389392853,-0.9054124355316162
1701815081697970700,5.825970703125,0.46066588163375854,0.4533802568912506,-1.128005862236023
1701815081707922700,5.835922607421875,0.5294382572174072,0.6945936679840088,-1.271921992301941
1701815081717875500,5.84587548828125,0.572040319442749,0.8904465436935425,-1.3004364967346191
1701815081727827500,5.855827392578125,0.5849281549453735,1.0126537084579468,-1.2325466871261597
1701815081737780500,5.865780517578125,0.5595783591270447,1.0545451641082764,-1.0961076021194458
1701815081747732700,5.875732666015625,0.4860402047634125,1.0145914554595947,-0.9476560354232788
1701815081757685800,5.885685791015625,0.36165061593055725,0.8873279690742493,-0.8232904076576233
1701815081767638500,5.895638427734375,0.19981111586093903,0.7661107182502747,-0.7458579540252686
1701815081777590500,5.905590576171875,0.00624058535322547,0.671777606010437,-0.7227630019187927
1701815081787543600,5.91554345703125,-0.20144523680210114,0.6051381230354309,-0.7256149649620056
1701815081797495600,5.92549560546875,-0.3902556300163269,0.513460636138916,-0.7110301852226257
1701815081807448600,5.935448486328125,-0.533564031124115,0.3934282660484314,-0.6567059755325317
1701815081817400600,5.945400634765625,-0.6248862147331238,0.2545214891433716,-0.5499957799911499
1701815081827353600,5.955353515625,-0.6672728657722473,0.10091036558151245,-0.41132017970085144
1701815081837305600,5.9653056640625,-0.6596215963363647,-0.03259549289941788,-0.27572372555732727
1701815081847258600,5.975258544921875,-0.6322959661483765,-0.14025244116783142,-0.15557867288589478
1701815081857210600,5.985210693359375,-0.5923722386360168,-0.21072527766227722,-0.06149851530790329
1701815081867163600,5.99516357421875,-0.5391947627067566,-0.23437123000621796,0.011424162425100803
1701815081877115400,6.005115478515625,-0.46957361698150635,-0.18729105591773987,0.0678781196475029
1701815081887068400,6.015068359375,-0.3870486617088318,-0.08022905886173248,0.11118751019239426
1701815081897021400,6.025021484375,-0.29947593808174133,0.06375261396169662,0.14160586893558502
1701815081906973700,6.0349736328125,-0.22485175728797913,0.17706719040870667,0.17243967950344086
1701815081916926700,6.0449267578125,-0.16975627839565277,0.21571950614452362,0.21951104700565338
1701815081926878500,6.05487841796875,-0.14185327291488647,0.15220950543880463,0.2666783034801483
1701815081936831500,6.06483154296875,-0.1442895382642746,0.034866638481616974,0.2837475538253784
1701815081946783500,6.074783447265625,-0.17362771928310394,-0.08261418342590332,0.2667752504348755
1701815081956736500,6.084736572265625,-0.2166481465101242,-0.18120121955871582,0.21475064754486084
1701815081966688500,6.0946884765625,-0.25770050287246704,-0.25304558873176575,0.15745007991790771
1701815081976641500,6.1046416015625,-0.28067854046821594,-0.290571391582489,0.11396518349647522
1701815081986593500,6.114593505859375,-0.28429457545280457,-0.2843097448348999,0.0943688452243805
1701815081996546600,6.124546630859375,-0.26665326952934265,-0.23948556184768677,0.09760192036628723
1701815082006498600,6.13449853515625,-0.2250746637582779,-0.166098952293396,0.1198534369468689
1701815082016451600,6.14445166015625,-0.17161543667316437,-0.09394779801368713,0.151600182056427
1701815082026403600,6.154403564453125,-0.1144711822271347,-0.03154407814145088,0.18155966699123383
1701815082036356400,6.1643564453125,-0.06538806110620499,0.004343615844845772,0.1884106546640396
1701815082046309400,6.174309326171875,-0.028364529833197594,0.005510346498340368,0.17047692835330963
1701815082056261600,6.18426171875,0.0021726067643612623,-0.019304456189274788,0.13904497027397156
1701815082066214700,6.194214599609375,0.020254138857126236,-0.04932893440127373,0.11179710179567337
1701815082076166700,6.204166748046875,0.033189110457897186,-0.07528010755777359,0.09824507683515549
1701815082086119700,6.21411962890625,0.039866987615823746,-0.10253063589334488,0.0974501222372055
1701815082096071400,6.224071533203125,0.036727920174598694,-0.12773080170154572,0.10930172353982925
1701815082106024400,6.2340244140625,0.026994865387678146,-0.15496109426021576,0.12342739850282669
1701815082115976400,6.2439765625,0.012296613305807114,-0.1884775012731552,0.1330627053976059
1701815082125929500,6.253929443359375,0.0046267095021903515,-0.23034825921058655,0.12946797907352448
1701815082135881700,6.2638818359375,0.0045585329644382,-0.26466628909111023,0.11548931151628494
1701815082145834500,6.27383447265625,0.01260846946388483,-0.2804742753505707,0.09519735723733902
1701815082155786500,6.283786376953125,0.03129001334309578,-0.2702093720436096,0.06964858621358871
1701815082165739500,6.293739501953125,0.0544576495885849,-0.23643410205841064,0.04103824496269226
1701815082175692500,6.303692626953125,0.07466678321361542,-0.18721462786197662,0.00726430444046855
1701815082185644500,6.31364453125,0.08144772052764893,-0.1287798136472702,-0.030041521415114403
1701815082195597600,6.32359765625,0.07965541630983353,-0.068525530397892,-0.07463721930980682
1701815082205549600,6.333549560546875,0.07615096122026443,-0.014642059803009033,-0.10987003892660141
1701815082215502600,6.343502685546875,0.07665349543094635,0.02731311321258545,-0.13107280433177948
1701815082225454600,6.35345458984375,0.07802262902259827,0.05265122652053833,-0.13758476078510284
1701815082235407600,6.36340771484375,0.08006367832422256,0.05841723829507828,-0.1308530867099762
1701815082245359600,6.373359619140625,0.08190684765577316,0.05360383912920952,-0.12031149864196777
1701815082255312400,6.3833125,0.08225838840007782,0.043053459376096725,-0.1155172735452652
1701815082265264400,6.393264404296875,0.07342202216386795,0.028128573670983315,-0.1122644916176796
1701815082275217400,6.403217529296875,0.058818042278289795,0.01709243468940258,-0.11578439176082611
1701815082285169700,6.413169677734375,0.04692463204264641,0.009562612511217594,-0.12454645335674286
1701815082295122700,6.423122802734375,0.024708276614546776,-0.007256048731505871,-0.1359652876853943
1701815082305074400,6.433074462890625,0.004040548112243414,-0.021255753934383392,-0.1457955539226532
1701815082315027500,6.44302734375,-0.005409146659076214,-0.03343785181641579,-0.1448242962360382
1701815082324980500,6.45298046875,-0.009925334714353085,-0.04607747867703438,-0.1310640126466751
1701815082334932500,6.462932373046875,-0.015935556963086128,-0.058890748769044876,-0.1140591949224472
1701815082344885500,6.472885498046875,-0.03002900443971157,-0.07728254050016403,-0.10049278289079666
1701815082354837800,6.482837646484375,-0.04668308421969414,-0.10215725749731064,-0.09786344319581985
1701815082364790500,6.49279052734375,-0.06638621538877487,-0.1360635608434677,-0.10480204969644547
1701815082374742500,6.502742431640625,-0.07793368399143219,-0.16681374609470367,-0.1195937767624855
1701815082384695600,6.512695556640625,-0.08326985687017441,-0.20087158679962158,-0.12947995960712433
1701815082394647600,6.5226474609375,-0.0824780985713005,-0.2233199030160904,-0.13581694662570953
1701815082404600600,6.5326005859375,-0.07576000690460205,-0.22967953979969025,-0.1298016756772995
1701815082414552600,6.542552490234375,-0.06423171609640121,-0.22780440747737885,-0.11851226538419724
1701815082424505600,6.552505615234375,-0.04789721965789795,-0.22290977835655212,-0.10410802811384201
1701815082434457600,6.56245751953125,-0.03738252446055412,-0.22236302495002747,-0.08879564702510834
1701815082444410600,6.57241064453125,-0.031553398817777634,-0.2238762378692627,-0.0728134885430336
1701815082454362600,6.582362548828125,-0.03327326849102974,-0.22733116149902344,-0.05468614771962166
1701815082464315600,6.592315673828125,-0.02816719003021717,-0.23068514466285706,-0.04189711809158325
1701815082474268400,6.602268310546875,-0.021561218425631523,-0.24165230989456177,-0.03117363154888153
1701815082484220400,6.612220458984375,-0.017002418637275696,-0.2629261612892151,-0.026750653982162476
1701815082494173400,6.62217333984375,-0.019453059881925583,-0.2783496081829071,-0.03758732229471207
1701815082504125700,6.632125732421875,-0.022222748026251793,-0.29239803552627563,-0.059307798743247986
1701815082514078700,6.64207861328125,-0.02918078936636448,-0.30796608328819275,-0.08481208980083466
1701815082524030500,6.652030517578125,-0.033123597502708435,-0.3190152645111084,-0.10861808806657791
1701815082533983500,6.6619833984375,-0.0377495102584362,-0.3145779073238373,-0.12014398723840714
1701815082543935500,6.671935546875,-0.040517598390579224,-0.2912885546684265,-0.12463726848363876
1701815082553888500,6.681888427734375,-0.05729284882545471,-0.26672810316085815,-0.12006808072328568
1701815082563840500,6.691840576171875,-0.07942638546228409,-0.24673840403556824,-0.10962769389152527
1701815082573793500,6.70179345703125,-0.10856562852859497,-0.22843477129936218,-0.09008461982011795
1701815082583745500,6.71174560546875,-0.12257784605026245,-0.21131543815135956,-0.0655507817864418
1701815082593698600,6.721698486328125,-0.1276884526014328,-0.20547886192798615,-0.03808772936463356
1701815082603650600,6.731650634765625,-0.13166135549545288,-0.19225360453128815,-0.01961657777428627
1701815082613603600,6.741603515625,-0.13051752746105194,-0.17606423795223236,-0.018158763647079468
1701815082623556600,6.751556640625,-0.11929230391979218,-0.1574210524559021,-0.02298547700047493
1701815082633508400,6.76150830078125,-0.09869461506605148,-0.130494624376297,-0.03677425906062126
1701815082643461400,6.77146142578125,-0.07647187262773514,-0.11004820466041565,-0.054074954241514206
1701815082653413600,6.78141357421875,-0.0562070794403553,-0.0990152657032013,-0.07287473976612091
1701815082663366700,6.79136669921875,-0.04670838266611099,-0.09933937340974808,-0.09458083659410477
1701815082673318700,6.801318603515625,-0.04507932811975479,-0.09928850084543228,-0.11618679016828537
1701815082683271700,6.811271728515625,-0.04372963681817055,-0.08991790562868118,-0.12920218706130981
1701815082693223400,6.821223388671875,-0.042266495525836945,-0.08373111486434937,-0.13336098194122314
1701815082703176400,6.831176513671875,-0.04134131595492363,-0.07364919036626816,-0.13368988037109375
1701815082713128700,6.841128662109375,-0.0384022481739521,-0.057077933102846146,-0.13154257833957672
1701815082723081700,6.851081787109375,-0.03973223268985748,-0.035709261894226074,-0.11888564378023148
1701815082733034000,6.861033935546875,-0.038061898201704025,-0.01595419831573963,-0.09677740931510925
1701815082742987000,6.870987060546875,-0.0342426598072052,-0.002739860210567713,-0.07479168474674225
1701815082752938800,6.880938720703125,-0.030553648248314857,0.010817227885127068,-0.0637132003903389
1701815082762891800,6.890891845703125,-0.026323216035962105,0.023028086870908737,-0.07239110767841339
1701815082772843800,6.90084375,-0.01666579581797123,0.03008732758462429,-0.10506756603717804
1701815082782796800,6.910796875,-0.006369748618453741,0.04060308635234833,-0.14339710772037506
1701815082792749800,6.920749755859375,0.0035273567773401737,0.0531843900680542,-0.18108323216438293
1701815082802701800,6.930701904296875,0.02233166992664337,0.06423677504062653,-0.21180252730846405
1701815082812654800,6.94065478515625,0.040959682315588,0.08094305545091629,-0.22708481550216675
1701815082822606800,6.95060693359375,0.06061567738652229,0.10432960093021393,-0.22626721858978271
1701815082832559900,6.960559814453125,0.07410138845443726,0.13184484839439392,-0.19987183809280396
1701815082842512000,6.970511962890625,0.08008231967687607,0.14720675349235535,-0.1692393571138382
1701815082852465000,6.98046484375,0.07449447363615036,0.15320180356502533,-0.1496930867433548
1701815082862416600,6.990416748046875,0.06905736774206161,0.14969947934150696,-0.13948120176792145
1701815082872369700,7.00036962890625,0.062378156930208206,0.13760100305080414,-0.13528326153755188
1701815082882322000,7.010322021484375,0.05138462781906128,0.11451485753059387,-0.13515116274356842
1701815082892275000,7.02027490234375,0.03340616077184677,0.08134998381137848,-0.14260216057300568
1701815082902227000,7.03022705078125,0.014305436052381992,0.049982208758592606,-0.14975140988826752
1701815082912180000,7.040179931640625,-0.004120708908885717,0.03278111666440964,-0.14986592531204224
1701815082922131700,7.050131591796875,-0.026612436398863792,0.028012726455926895,-0.14326448738574982
1701815082932084700,7.060084716796875,-0.0538611002266407,0.030237264931201935,-0.13202780485153198
1701815082942037000,7.070037109375,-0.08412846177816391,0.04117699712514877,-0.12058846652507782
1701815082951990000,7.079989990234375,-0.11217154562473297,0.06198427453637123,-0.10496450215578079
1701815082961942800,7.08994287109375,-0.13535702228546143,0.09068436175584793,-0.08763397485017776
1701815082971894800,7.099894775390625,-0.16142058372497559,0.12407241016626358,-0.06997695565223694
1701815082981847800,7.109847900390625,-0.17801447212696075,0.15177728235721588,-0.049435991793870926
1701815082991799800,7.1197998046875,-0.18908363580703735,0.1740596741437912,-0.03111823834478855
1701815083001752800,7.1297529296875,-0.1932767778635025,0.18172958493232727,-0.014888402074575424
1701815083011704800,7.139704833984375,-0.1930411010980606,0.18165715038776398,-0.014909440651535988
1701815083021657900,7.149657958984375,-0.19186317920684814,0.1602301448583603,-0.02840554155409336
1701815083031609900,7.15960986328125,-0.1875070482492447,0.14677026867866516,-0.04410221427679062
1701815083041563000,7.16956298828125,-0.18041877448558807,0.1345229297876358,-0.04711318388581276
1701815083051515000,7.179514892578125,-0.17402824759483337,0.12599734961986542,-0.035530030727386475
1701815083061468000,7.189468017578125,-0.16854587197303772,0.1200459823012352,-0.016599483788013458
1701815083071420000,7.199419921875,-0.1686212420463562,0.1221512109041214,-0.0024623586796224117
1701815083081372700,7.20937255859375,-0.1720452606678009,0.1288357377052307,0.013185310177505016
1701815083091325000,7.219324951171875,-0.17058372497558594,0.14744244515895844,0.02797863818705082
1701815083101278000,7.22927783203125,-0.1640256941318512,0.15375760197639465,0.03720622509717941
1701815083111231000,7.23923095703125,-0.1609947383403778,0.14643897116184235,0.040553018450737
1701815083121183000,7.249182861328125,-0.16429147124290466,0.13114230334758759,0.04332989826798439
1701815083131136000,7.259135986328125,-0.1619739830493927,0.11235104501247406,0.04406306520104408
1701815083141087700,7.269087646484375,-0.15692169964313507,0.09901366382837296,0.0439368300139904
1701815083151040800,7.279040771484375,-0.15201643109321594,0.08905211091041565,0.04427238926291466
1701815083160992800,7.28899267578125,-0.1500062793493271,0.0804695412516594,0.045696914196014404
1701815083170945800,7.29894580078125,-0.1523682326078415,0.07003048062324524,0.0584835484623909
1701815083180898000,7.30889794921875,-0.15196582674980164,0.05747793987393379,0.07419247180223465
1701815083190850800,7.318850830078125,-0.1591086983680725,0.04422764852643013,0.08707870543003082
1701815083200802800,7.328802734375,-0.16646035015583038,0.03567437455058098,0.09521573036909103
1701815083210755800,7.338755859375,-0.17507007718086243,0.026984745636582375,0.09472917020320892
1701815083220707800,7.348707763671875,-0.1811399608850479,0.023068567737936974,0.09265802800655365
1701815083230660900,7.358660888671875,-0.181394562125206,0.029258819296956062,0.08622809499502182
1701815083240612900,7.36861279296875,-0.1790163516998291,0.036798760294914246,0.071757011115551
1701815083250566000,7.37856591796875,-0.1758200228214264,0.04110322892665863,0.05523316189646721
1701815083260518000,7.388517822265625,-0.16606727242469788,0.048401620239019394,0.04356585443019867
1701815083270471000,7.398470947265625,-0.14954873919487,0.05366429314017296,0.04751665145158768
1701815083280423000,7.4084228515625,-0.13205896317958832,0.0673992782831192,0.06220585107803345
1701815083290376000,7.4183759765625,-0.11226209253072739,0.0765906497836113,0.0859476625919342
1701815083300328700,7.42832861328125,-0.09355604648590088,0.08546270430088043,0.10789530724287033
1701815083310280700,7.43828076171875,-0.07243318855762482,0.09237919747829437,0.12606845796108246
1701815083320233700,7.448233642578125,-0.050938013941049576,0.09206654131412506,0.12910179793834686
1701815083330186000,7.45818603515625,-0.036491166800260544,0.08463232964277267,0.11055926978588104
1701815083340139000,7.468138916015625,-0.02793203294277191,0.0658077746629715,0.08248022943735123
1701815083350090800,7.4780908203125,-0.017171263694763184,0.045469481498003006,0.05560334026813507
1701815083360043800,7.488043701171875,-0.00788269005715847,0.03860917687416077,0.031733959913253784
1701815083369995800,7.497995849609375,-0.0012681973166763783,0.030238863080739975,0.02111753635108471
1701815083379948800,7.50794873046875,-0.0020519655663520098,0.026104571297764778,0.008349808864295483
1701815083389900800,7.51790087890625,-0.004081560764461756,0.022413961589336395,-0.002936934120953083
1701815083399853800,7.527853759765625,-0.003832555143162608,0.022542061284184456,-0.009724265895783901
1701815083409805800,7.537805908203125,0.0019345202017575502,0.02267947979271412,-0.012839632108807564
1701815083419758800,7.5477587890625,0.0070792147889733315,0.0321400947868824,-0.009590575471520424
1701815083429710800,7.5577109375,0.014532603323459625,0.03743152692914009,-0.00008655273268232122
1701815083439663900,7.567663818359375,0.02009567990899086,0.03807974234223366,0.014056163839995861
1701815083449616000,7.577615966796875,0.027596207335591316,0.04725060239434242,0.025590848177671432
1701815083459568600,7.587568603515625,0.03755936026573181,0.04886794090270996,0.03170706331729889
1701815083469521700,7.597521728515625,0.038178011775016785,0.046305179595947266,0.023815317079424858
1701815083479474000,7.607473876953125,0.037161748856306076,0.03051423281431198,0.006555637344717979
1701815083489427000,7.617427001953125,0.03428686782717705,0.006852579768747091,-0.008390555158257484
1701815083499379000,7.62737890625,0.034097250550985336,-0.009096559137105942,-0.022942600771784782
1701815083509332000,7.63733203125,0.03597584366798401,-0.013817545026540756,-0.03417927399277687
1701815083519283700,7.64728369140625,0.039371639490127563,-0.011077684350311756,-0.03188017010688782
1701815083529236700,7.65723681640625,0.04205504059791565,0.00034887410583905876,-0.02118225023150444
1701815083539188700,7.667188720703125,0.04800321161746979,0.0202791728079319,-0.008950618095695972
1701815083549141800,7.677141845703125,0.053223274648189545,0.04326837882399559,0.004346012603491545
1701815083559094000,7.687093994140625,0.05880792438983917,0.06379628926515579,0.008497081696987152
1701815083569046800,7.697046875,0.05594981834292412,0.06834790110588074,0.0012144014472141862
1701815083578998800,7.706998779296875,0.053397711366415024,0.08613568544387817,-0.010468087159097195
1701815083588951800,7.716951904296875,0.05151885002851486,0.09297947585582733,-0.01949620246887207
1701815083598903800,7.72690380859375,0.045012217015028,0.09798089414834976,-0.027452662587165833
1701815083608856800,7.73685693359375,0.03929760307073593,0.09652174264192581,-0.03087162971496582
1701815083618808800,7.746808837890625,0.041666220873594284,0.08626750856637955,-0.031309451907873154
1701815083628761900,7.756761962890625,0.05012575164437294,0.06178054213523865,-0.028388498350977898
1701815083638713900,7.7667138671875,0.05494660511612892,0.03899800032377243,-0.026327744126319885
1701815083648667000,7.7766669921875,0.05590534210205078,0.016353938728570938,-0.022535402327775955
1701815083658619000,7.786618896484375,0.056047022342681885,-0.0003022687742486596,-0.010519752278923988
1701815083668572000,7.796572021484375,0.0600108727812767,-0.00812051072716713,0.004984105937182903
1701815083678524700,7.806524658203125,0.0635765790939331,-0.007474694401025772,0.01950073055922985
1701815083688477000,7.816476806640625,0.06123965606093407,-0.001074052881449461,0.028895031660795212
1701815083698429700,7.8264296875,0.06353743374347687,0.0009568737586960196,0.03371775150299072
1701815083708382000,7.8363818359375,0.06362531334161758,0.0002897519152611494,0.0351254977285862
1701815083718334200,7.846334228515625,0.06594279408454895,-0.0035204326268285513,0.029161613434553146
1701815083728286200,7.8562861328125,0.06492280960083008,-0.0023813985753804445,0.023901870474219322
1701815083738239200,7.8662392578125,0.05919674411416054,-0.0028671592008322477,0.02101287432014942
1701815083748191200,7.876191162109375,0.05662466213107109,0.007720770314335823,0.01799844205379486
1701815083758144300,7.886144287109375,0.05334950610995293,0.01321034412831068,0.025844380259513855
1701815083768096300,7.89609619140625,0.04679679870605469,0.01272724661976099,0.03350336477160454
1701815083778049300,7.90604931640625,0.03870824724435806,0.010429205372929573,0.03435318171977997
1701815083788001300,7.916001220703125,0.030955253168940544,0.005686647724360228,0.03296247869729996
1701815083797954300,7.925954345703125,0.02455461211502552,-0.00020000340009573847,0.031381092965602875
1701815083807906000,7.935906005859375,0.02099183388054371,0.0009155947482213378,0.028028704226017
1701815083817859000,7.945859130859375,0.020834974944591522,0.00455826660618186,0.024924257770180702
1701815083827811300,7.955811279296875,0.02232874184846878,0.007959921844303608,0.027522170916199684
1701815083837764400,7.965764404296875,0.021930066868662834,0.013799968175590038,0.03217710927128792
1701815083847716400,7.97571630859375,0.02267921343445778,0.012234295718371868,0.03206951916217804
1701815083857669000,7.985669189453125,0.021621672436594963,0.010812966153025627,0.026216689497232437
1701815083867622100,7.9956220703125,0.024110129103064537,0.004312722943723202,0.020379839465022087
1701815083877574100,8.00557421875,0.028122447431087494,-0.0019624833948910236,0.011139203794300556
1701815083887527200,8.015527099609375,0.02568592131137848,-0.004591822158545256,0.006096241995692253
1701815083897479200,8.025479248046874,0.02172926440834999,0.0032415995374321938,0.0016892430139705539
1701815083907432200,8.03543212890625,0.014847123064100742,0.0015100123127922416,0.007899202406406403
1701815083917384200,8.04538427734375,0.004306863993406296,-0.004529770463705063,0.015935290604829788
1701815083927337200,8.055337158203125,-0.0032405343372374773,-0.0020101540721952915,0.027831630781292915
1701815083937289200,8.065289306640626,-0.007850466296076775,-0.009638246148824692,0.040767669677734375
1701815083947242200,8.0752421875,-0.0062973108142614365,-0.00749120581895113,0.055026501417160034
1701815083957194200,8.0851943359375,-0.008498946204781532,-0.013501161709427834,0.06571616232395172
1701815083967147000,8.09514697265625,-0.009138903580605984,-0.014905179850757122,0.06849677115678787
1701815083977099300,8.105099365234375,-0.006295446306467056,-0.023782826960086823,0.06592655181884766
1701815083987052300,8.11505224609375,-0.006444317288696766,-0.032757945358753204,0.05531385540962219
1701815083997004300,8.12500439453125,-0.005076784174889326,-0.03820277750492096,0.04068298265337944
1701815084006957300,8.134957275390626,-0.0008604673203080893,-0.03778333216905594,0.030827688053250313
1701815084016909000,8.144908935546875,0.001758218975737691,-0.03477928414940834,0.03152836486697197
1701815084026862000,8.154862060546876,0.006327404174953699,-0.02696557156741619,0.044989313930273056
1701815084036814300,8.164814453125,0.0099008334800601,-0.019724169746041298,0.06507700681686401
1701815084046767400,8.174767333984375,0.009442769922316074,-0.018185928463935852,0.08210045844316483
1701815084056720400,8.184720458984375,0.0036362800747156143,-0.01731986738741398,0.09251102805137634
1701815084066672400,8.19467236328125,0.00035952674807049334,-0.016104668378829956,0.10329389572143555
1701815084076625200,8.204625244140624,-0.004304999951273203,-0.018063955008983612,0.10979520529508591
1701815084086577200,8.2145771484375,-0.005106611177325249,-0.02395540103316307,0.11321177333593369
1701815084096530200,8.2245302734375,-0.0005171858938410878,-0.03796735405921936,0.10799810290336609
1701815084106482200,8.234482177734375,0.000046339002437889576,-0.05490000173449516,0.1011631041765213
1701815084116435200,8.244435302734376,0.003834951901808381,-0.06175391003489494,0.09700164943933487
1701815084126387200,8.25438720703125,0.006343383342027664,-0.05679643899202347,0.09277281165122986
1701815084136340200,8.26434033203125,0.011826032772660255,-0.0458681546151638,0.09229477494955063
1701815084146292200,8.274292236328124,0.013668940402567387,-0.030340328812599182,0.08817034214735031
1701815084156245200,8.284245361328125,0.017798971384763718,-0.018156100064516068,0.08266851305961609
1701815084166197200,8.294197265625,0.021145232021808624,-0.003763579297810793,0.07154928147792816
1701815084176150300,8.304150390625,0.024472054094076157,0.0013677994720637798,0.06059090793132782
1701815084186102300,8.314102294921875,0.03007720783352852,0.01002307329326868,0.05103442072868347
1701815084196055300,8.32405517578125,0.03002581000328064,0.017911888659000397,0.045648712664842606
1701815084206007300,8.33400732421875,0.027518177404999733,0.029766151681542397,0.045997317880392075
1701815084215960300,8.343960205078124,0.026813238859176636,0.04496854171156883,0.047322243452072144
1701815084225912000,8.353912109375,0.021647771820425987,0.05474340543150902,0.05224083364009857
1701815084235865000,8.363864990234376,0.013075588271021843,0.056782856583595276,0.050760913640260696
1701815084245818000,8.373818115234375,0.003317766124382615,0.05218943580985069,0.03935379907488823
1701815084255770000,8.38377001953125,-0.0038978024385869503,0.044016458094120026,0.025782594457268715
1701815084265723100,8.39372314453125,-0.008270978927612305,0.029281988739967346,0.012461729347705841
1701815084275675400,8.40367529296875,-0.011227620765566826,0.01210007257759571,-0.0017502295086160302
1701815084285628400,8.41362841796875,-0.008845156989991665,-0.005616073962301016,-0.012093414552509785
1701815084295580200,8.423580078125,-0.006535930093377829,-0.021572137251496315,-0.01369397435337305
1701815084305533200,8.433533203125,-0.002813895931467414,-0.043899811804294586,-0.013442572206258774
1701815084315485200,8.443485107421875,-0.0064927865751087666,-0.05108289048075676,-0.018009893596172333
1701815084325438200,8.453438232421876,-0.012890764512121677,-0.05362461134791374,-0.011659319512546062
1701815084335390200,8.46339013671875,-0.012646553106606007,-0.052732985466718674,-0.012221778742969036
1701815084345343200,8.47334326171875,-0.02045121230185032,-0.052020855247974396,-0.011336011812090874
1701815084355295200,8.483295166015624,-0.03116164728999138,-0.05080112814903259,-0.014452442526817322
1701815084365248300,8.493248291015625,-0.042325351387262344,-0.04694726690649986,-0.018547851592302322
1701815084375200300,8.5032001953125,-0.050387006253004074,-0.03997378051280975,-0.015206383541226387
1701815084385153300,8.5131533203125,-0.04984106123447418,-0.030411701649427414,-0.007066431455314159
1701815084395105000,8.52310498046875,-0.04831719771027565,-0.021976672112941742,0.0054914383217692375
1701815084405058000,8.53305810546875,-0.04616349935531616,-0.015144597738981247,0.021623004227876663
1701815084415010300,8.54301025390625,-0.04086753726005554,-0.004450940992683172,0.03814046084880829
1701815084424963300,8.55296337890625,-0.036434974521398544,0.009896039962768555,0.05433061718940735
1701815084434915300,8.562915283203125,-0.03729091212153435,0.013877999037504196,0.07498130202293396
1701815084444868400,8.572868408203124,-0.03744830563664436,0.0017869811272248626,0.09622293710708618
1701815084454820000,8.582820068359375,-0.03688877448439598,-0.020446952432394028,0.11703580617904663
1701815084464773000,8.592773193359376,-0.04009095951914787,-0.03850105404853821,0.13341398537158966
1701815084474726100,8.60272607421875,-0.04550010710954666,-0.04206063598394394,0.14530234038829803
1701815084484678100,8.61267822265625,-0.05145972967147827,-0.04121667891740799,0.1592453122138977
1701815084494631200,8.622631103515625,-0.0546475313603878,-0.03556092455983162,0.170279860496521
1701815084504583200,8.632583251953125,-0.05699723958969116,-0.029449502006173134,0.1754772812128067
1701815084514536200,8.6425361328125,-0.0524727962911129,-0.023328226059675217,0.1751992404460907
1701815084524488200,8.65248828125,-0.043288350105285645,-0.01876995898783207,0.17322984337806702
1701815084534441200,8.662441162109374,-0.03458913415670395,-0.02166188508272171,0.17697983980178833
1701815084544393200,8.672393310546875,-0.02648327313363552,-0.03815058246254921,0.1882292926311493
1701815084554346200,8.68234619140625,-0.023857396095991135,-0.04728176072239876,0.19854052364826202
1701815084564298200,8.69229833984375,-0.01986558362841606,-0.04910815879702568,0.2004084587097168
1701815084574251300,8.702251220703126,-0.01671879179775715,-0.04268088564276695,0.19934186339378357
1701815084584203300,8.712203369140624,-0.009944243356585503,-0.035108983516693115,0.19103093445301056
1701815084594156300,8.72215625,-0.007388407830148935,-0.028434570878744125,0.18256156146526337
1701815084604108000,8.73210791015625,-0.0054821171797811985,-0.026864370331168175,0.17666159570217133
1701815084614061000,8.74206103515625,-0.0032032502349466085,-0.02726837247610092,0.17253635823726654
1701815084624013300,8.752013427734376,-0.002642122097313404,-0.036549221724271774,0.16856370866298676
1701815084633966000,8.761966064453125,-0.005949768237769604,-0.03858760744333267,0.16787955164909363
1701815084643918300,8.77191845703125,-0.00987207144498825,-0.03211745619773865,0.16870886087417603
1701815084653871400,8.781871337890625,-0.010671818628907204,-0.026975158601999283,0.17292997241020203
1701815084663823000,8.791822998046875,-0.0138377845287323,-0.031743548810482025,0.1853424310684204
1701815084673776000,8.801776123046874,-0.018965966999530792,-0.03827574849128723,0.1867099553346634
1701815084683728100,8.81172802734375,-0.02147280052304268,-0.04380900040268898,0.17691165208816528
1701815084693681200,8.82168115234375,-0.02936028502881527,-0.04832305759191513,0.16467496752738953
1701815084703633400,8.83163330078125,-0.039018772542476654,-0.04970843344926834,0.15049709379673004
1701815084713586400,8.84158642578125,-0.05296041816473007,-0.047752875834703445,0.13941967487335205
1701815084723539200,8.851539306640625,-0.058707788586616516,-0.0388890765607357,0.1260649859905243
1701815084733491200,8.8614912109375,-0.0668828934431076,-0.025839585810899734,0.107781320810318
1701815084743444200,8.8714443359375,-0.07348327338695526,-0.014096643775701523,0.09440480172634125
1701815084753396200,8.881396240234375,-0.07928390055894852,0.004531368613243103,0.08671998232603073
1701815084763349000,8.891348876953124,-0.08552289009094238,0.021099425852298737,0.08290393650531769
1701815084773301200,8.90130126953125,-0.09003375470638275,0.03923874720931053,0.08087114989757538
1701815084783254300,8.911254150390626,-0.09042763710021973,0.05684703588485718,0.07885140925645828
1701815084793206300,8.921206298828125,-0.08364296704530716,0.07000012695789337,0.08496762067079544
1701815084803159300,8.9311591796875,-0.07826417684555054,0.07403108477592468,0.0929347351193428
1701815084813111000,8.941111083984374,-0.06819529831409454,0.06983793526887894,0.10181531310081482
1701815084823064000,8.95106396484375,-0.05872243642807007,0.04915875568985939,0.12249156087636948
1701815084833016000,8.96101611328125,-0.05729604512453079,0.02070261538028717,0.13894563913345337
1701815084842969000,8.970968994140625,-0.05513888597488403,-0.008452607318758965,0.15123265981674194
1701815084852921300,8.98092138671875,-0.059720855206251144,-0.03909040987491608,0.14980760216712952
1701815084862874400,8.990874267578125,-0.061894793063402176,-0.06902726739645004,0.1429278552532196
1701815084872826000,9.000826171875,-0.06608900427818298,-0.08719988167285919,0.13079769909381866
1701815084882779100,9.010779052734375,-0.0684397742152214,-0.08887261152267456,0.11276090145111084
1701815084892731100,9.020731201171875,-0.07034686952829361,-0.07040359079837799,0.0997987687587738
1701815084902684200,9.03068408203125,-0.07454533874988556,-0.044504616409540176,0.09090806543827057
1701815084912636200,9.04063623046875,-0.07850892096757889,-0.015727831050753593,0.0882457047700882
1701815084922589200,9.050589111328126,-0.07258924841880798,0.012121643871068954,0.08245226740837097
1701815084932542200,9.060542236328125,-0.06738276779651642,0.021889053285121918,0.08318915963172913
1701815084942494200,9.070494140625,-0.05963350087404251,0.019331619143486023,0.09290863573551178
1701815084952447200,9.080447265625,-0.0495811365544796,0.016751816496253014,0.10398419201374054
1701815084962399200,9.090399169921875,-0.03614788502454758,0.01119220070540905,0.11266636103391647
1701815084972352300,9.100352294921874,-0.023364977911114693,-0.0026988473255187273,0.1195458397269249
1701815084982304000,9.110303955078125,-0.008413724601268768,-0.035052258521318436,0.1237669512629509
1701815084992257000,9.120257080078124,0.0009009473724290729,-0.07654484361410141,0.11185702681541443
1701815085002208300,9.130208251953125,0.0173835176974535,-0.114345483481884,0.08527148514986038
1701815085012161300,9.140161376953126,0.03158189356327057,-0.14091238379478455,0.05300862342119217
1701815085022113000,9.150113037109374,0.041183121502399445,-0.1459132581949234,0.027484888210892677
1701815085032066000,9.160066162109375,0.050033073872327805,-0.12347879260778427,0.013644971884787083
1701815085042018000,9.17001806640625,0.06066387891769409,-0.08872614055871964,0.0044203149154782295
1701815085051971000,9.17997119140625,0.0653073638677597,-0.05378866195678711,0.004974252078682184
1701815085061923300,9.18992333984375,0.07146646082401276,-0.028848160058259964,0.001672198879532516
1701815085071876400,9.19987646484375,0.07767375558614731,-0.013106481172144413,-0.0017808558186516166
1701815085081828000,9.209828125,0.0812610313296318,-0.01973322406411171,-0.010172476060688496
1701815085091781000,9.219781005859375,0.08370315283536911,-0.034514568746089935,-0.013455620966851711
1701815085101734100,9.229734130859375,0.08468292653560638,-0.05288238823413849,-0.015675632283091545
1701815085111686100,9.23968603515625,0.0806594267487526,-0.06323729455471039,-0.013351491652429104
1701815085121639200,9.24963916015625,0.07876059412956238,-0.062312375754117966,-0.005270395893603563
1701815085131591200,9.259591064453126,0.07853129506111145,-0.0604737289249897,0.010704842396080494
1701815085141544200,9.269544189453125,0.07660369575023651,-0.06259706616401672,0.01919659785926342
1701815085151496200,9.27949609375,0.06944166123867035,-0.06367698311805725,0.014732340350747108
1701815085161449200,9.28944921875,0.06688955426216125,-0.06615079194307327,-0.0014538196846842766
1701815085171401200,9.299401123046875,0.0683835819363594,-0.0695204883813858,-0.02702229656279087
1701815085181354200,9.309354248046875,0.0730515718460083,-0.08021361380815506,-0.05174309015274048
1701815085191306200,9.31930615234375,0.07182225584983826,-0.09516087174415588,-0.06609299778938293
1701815085201259300,9.32925927734375,0.06345433741807938,-0.10560685396194458,-0.07019267231225967
1701815085211211300,9.339211181640625,0.05149674788117409,-0.10638609528541565,-0.06617928296327591
1701815085221164300,9.349164306640626,0.043833766132593155,-0.09781230986118317,-0.05221366882324219
1701815085231116000,9.359115966796875,0.03217471390962601,-0.08319155871868134,-0.03765496611595154
1701815085241069000,9.369069091796876,0.015362710691988468,-0.066107377409935,-0.02317456156015396
1701815085251021000,9.37902099609375,0.0012056130217388272,-0.048404283821582794,-0.016808008775115013
1701815085260974000,9.38897412109375,-0.004253600724041462,-0.030275613069534302,-0.004846154246479273
1701815085270926300,9.39892626953125,-0.003454386256635189,-0.025075791403651237,0.012142948806285858
1701815085280879400,9.40887939453125,-0.001068193931132555,-0.02719060890376568,0.02846786007285118
1701815085290832400,9.418832275390624,0.0007536745979450643,-0.04695552587509155,0.04182334616780281
1701815085300784000,9.4287841796875,0.0020671456586569548,-0.07218950986862183,0.04885755479335785
1701815085310737200,9.438737060546876,0.0032000544015318155,-0.09134962409734726,0.04646150767803192
1701815085320689200,9.448689208984375,0.007110906299203634,-0.10070663690567017,0.036604348570108414
1701815085330642200,9.45864208984375,0.008873919025063515,-0.09628631919622421,0.026807645335793495
1701815085340594200,9.46859423828125,0.008808937855064869,-0.08313670009374619,0.021796375513076782
1701815085350547200,9.478547119140625,0.002226136391982436,-0.06527514010667801,0.023670975118875504
1701815085360499200,9.488499267578124,-0.0034796863328665495,-0.043596744537353516,0.027279291301965714
1701815085370452200,9.4984521484375,-0.004722050856798887,-0.026630811393260956,0.025489114224910736
1701815085380404200,9.508404296875,-0.004295146092772484,-0.016804279759526253,0.016701215878129005
1701815085390357200,9.518357177734375,-0.0003020024741999805,-0.020487964153289795,-0.0020751350093632936
1701815085400309000,9.52830908203125,0.00415319949388504,-0.030719297006726265,-0.022157499566674232
1701815085410262000,9.538261962890624,0.009198558516800404,-0.04067232832312584,-0.04845381900668144
1701815085420214300,9.54821435546875,0.014070545323193073,-0.04379994422197342,-0.0758042186498642
1701815085430167300,9.558167236328124,0.013566941022872925,-0.04849323257803917,-0.09554702788591385
1701815085440119300,9.568119384765625,0.014667092822492123,-0.040698159486055374,-0.10466036945581436
1701815085450072300,9.578072265625,0.012152270413935184,-0.016269251704216003,-0.09754706174135208
1701815085460024000,9.588024169921875,0.010265154764056206,0.008145011961460114,-0.08025302737951279
1701815085469977000,9.59797705078125,0.013406086713075638,0.021164407953619957,-0.057381533086299896
1701815085479930000,9.60793017578125,0.017885522916913033,0.019209381192922592,-0.04356585443019867
1701815085489882000,9.617882080078125,0.019752666354179382,0.005331648513674736,-0.04545003920793533
1701815085499835100,9.627835205078124,0.017412014305591583,-0.012285428121685982,-0.05239130184054375
1701815085509787100,9.637787109375,0.016267120838165283,-0.025314677506685257,-0.05872989073395729
1701815085519740200,9.647740234375,0.020118318498134613,-0.02419481799006462,-0.06536968797445297
1701815085529692200,9.657692138671875,0.025115473195910454,-0.024654746055603027,-0.07061611115932465
1701815085539645200,9.667645263671876,0.027713386341929436,-0.023573236539959908,-0.07226620614528656
1701815085549597200,9.67759716796875,0.033243972808122635,-0.025712287053465843,-0.07800611853599548
1701815085559550200,9.68755029296875,0.03719343990087509,-0.021040037274360657,-0.08125011622905731
1701815085569502200,9.697502197265624,0.03893168643116951,-0.018443189561367035,-0.08599693328142166
1701815085579455200,9.707455322265625,0.038845933973789215,-0.01954999938607216,-0.08611810952425003
1701815085589407200,9.7174072265625,0.03425357863306999,-0.026041720062494278,-0.07970787584781647
1701815085599360300,9.7273603515625,0.02611069567501545,-0.0287642702460289,-0.06982941180467606
1701815085609312000,9.73731201171875,0.022397451102733612,-0.027484089136123657,-0.057129066437482834
1701815085619265000,9.74726513671875,0.017852233722805977,-0.01961231790482998,-0.04187474399805069
1701815085629217000,9.757217041015625,0.012653743848204613,-0.00552259711548686,-0.029340311884880066
1701815085639170000,9.767170166015624,0.005338040180504322,0.009043562225997448,-0.015540343709290028
1701815085649122300,9.777122314453125,0.003855724586173892,0.018066884949803352,-0.005503954831510782
1701815085659075300,9.787075439453124,0.0026794064324349165,0.027415113523602486,-0.000693220819812268
1701815085669027000,9.797027099609375,0.005511944647878408,0.03368765488266945,-0.0031814121175557375
1701815085678980000,9.80697998046875,0.008554073050618172,0.04290885105729103,-0.007962052710354328
1701815085688933000,9.81693310546875,0.015060708858072758,0.039264049381017685,-0.019955065101385117
1701815085698885000,9.826885009765626,0.020601416006684303,0.03367620334029198,-0.03929547592997551
1701815085708838100,9.836838134765625,0.031501732766628265,0.0225047767162323,-0.059603940695524216
1701815085718790700,9.846790771484375,0.03881371021270752,0.013035374693572521,-0.06681418418884277
1701815085728743700,9.85674365234375,0.04560104012489319,0.01242444571107626,-0.05480146408081055
1701815085738695700,9.86669580078125,0.04968686401844025,0.009601760655641556,-0.03561178967356682
1701815085748648700,9.876648681640624,0.053219810128211975,0.009318400174379349,-0.02285817824304104
1701815085758600400,9.886600341796875,0.04958432912826538,0.007682154420763254,-0.02149304188787937
1701815085768553500,9.896553466796876,0.04189738258719444,0.004739094991236925,-0.02539989911019802
1701815085778505500,9.90650537109375,0.028426848351955414,0.004928978625684977,-0.038176946341991425
1701815085788458500,9.91645849609375,0.008854211308062077,0.012530971318483353,-0.05169488489627838
1701815085798410800,9.92641064453125,-0.007635016459971666,0.02582360804080963,-0.053713828325271606
1701815085808363800,9.93636376953125,-0.021518874913454056,0.04603167250752449,-0.04374029114842415
1701815085818315500,9.9463154296875,-0.029143771156668663,0.06553320586681366,-0.029145635664463043
1701815085828268500,9.9562685546875,-0.03570633381605148,0.08032865822315216,-0.013281450606882572
1701815085838220500,9.966220458984376,-0.04044809192419052,0.0853164941072464,-0.003923369105905294
1701815085848173600,9.976173583984375,-0.04406013712286949,0.07983358204364777,-0.003707652911543846
1701815085858125600,9.98612548828125,-0.0410212017595768,0.07850093394517899,-0.014113422483205795
1701815085868078600,9.99607861328125,-0.03712446615099907,0.08201763778924942,-0.023725569248199463
1701815085878031600,10.006031494140625,-0.03476117551326752,0.08224374055862427,-0.026196449995040894
1701815085887983600,10.015983642578124,-0.03026283159852028,0.0808463767170906,-0.026329342275857925
1701815085897936600,10.0259365234375,-0.026802320033311844,0.08408904075622559,-0.02971608377993107
1701815085907888600,10.035888671875,-0.01798299513757229,0.0826868936419487,-0.03982437774538994
1701815085917841700,10.045841552734375,-0.0032586439047008753,0.0643979012966156,-0.05777621269226074
1701815085927793400,10.05579345703125,0.015076421201229095,0.010222810320556164,-0.09765598922967911
1701815085937746400,10.065746337890625,0.03482376039028168,-0.09606048464775085,-0.15094584226608276
1701815085947698700,10.07569873046875,0.025256620720028877,-0.25367221236228943,-0.20513637363910675
1701815085957651700,10.085651611328124,-0.014133395627140999,-0.37004968523979187,-0.22755619883537292
1701815085967603700,10.095603759765625,-0.04560636729001999,-0.4460720121860504,-0.20763468742370605
1701815085977556700,10.105556640625,-0.06107800081372261,-0.46261265873908997,-0.16583611071109772
1701815085987508500,10.115508544921875,-0.061049506068229675,-0.43742287158966064,-0.1198694109916687
1701815085997461500,10.12546142578125,-0.048631452023983,-0.3956916630268097,-0.07204143702983856
1701815086007413500,10.13541357421875,-0.03687386214733124,-0.33957380056381226,-0.029168538749217987
1701815086017366500,10.145366455078126,-0.019166503101587296,-0.2842407822608948,0.009317069314420223
1701815086027318500,10.155318603515624,-0.0046876962296664715,-0.23837076127529144,0.030606910586357117
1701815086037271600,10.165271484375,0.004102599807083607,-0.2006169855594635,0.040877390652894974
1701815086047223600,10.1752236328125,0.005087969359010458,-0.17024363577365875,0.04258634150028229
1701815086057176600,10.185176513671875,0.007376956287771463,-0.14560461044311523,0.03629276156425476
1701815086067128600,10.195128662109376,0.006863232236355543,-0.12568096816539764,0.02172606810927391
1701815086077081600,10.20508154296875,0.008705341257154942,-0.10948467999696732,0.008162855170667171
1701815086087034600,10.21503466796875,0.005917810369282961,-0.09161700308322906,-0.0038634478114545345
1701815086096986600,10.224986572265625,0.009294698014855385,-0.07381030917167664,-0.009914682246744633
1701815086106939600,10.234939697265625,0.010244914330542088,-0.049603238701820374,-0.011028682813048363
1701815086116891600,10.2448916015625,0.012300342321395874,-0.02371385134756565,-0.008957276120781898
1701815086126844700,10.2548447265625,0.010430802591145039,0.0015448997728526592,-0.010297644883394241
1701815086136796400,10.26479638671875,0.00983478780835867,0.020849088206887245,-0.017172861844301224
1701815086146749400,10.27474951171875,0.010872354730963707,0.03966565430164337,-0.022825155407190323
1701815086156701400,10.284701416015626,0.011374360881745815,0.0469248965382576,-0.031023962423205376
1701815086166654500,10.294654541015625,0.011415639892220497,0.05932936817407608,-0.03967604041099548
1701815086176606700,10.304606689453125,0.009313873015344143,0.06558114290237427,-0.04447931796312332
1701815086186559700,10.314559814453125,0.006429403554648161,0.07292986661195755,-0.04322630167007446
1701815086196511500,10.324511474609375,0.008142082020640373,0.07433095574378967,-0.0393010675907135
1701815086206464500,10.334464599609374,0.004375307355076075,0.08025835454463959,-0.03531777858734131
1701815086216416500,10.34441650390625,0.0002109223569277674,0.08876635134220123,-0.034809913486242294
1701815086226369500,10.35436962890625,-0.007679224945604801,0.08893360197544098,-0.029622606933116913
1701815086236321800,10.36432177734375,-0.00941906776279211,0.088307224214077,-0.023093068972229958
1701815086246274600,10.374274658203126,-0.009661415591835976,0.08356093615293503,-0.02034708298742771
1701815086256226600,10.3842265625,-0.007546333130449057,0.08407706022262573,-0.02310638502240181
1701815086266179600,10.3941796875,-0.008509865030646324,0.06908133625984192,-0.03135978803038597
1701815086276131600,10.404131591796874,-0.00708720413967967,0.042211636900901794,-0.04578559845685959
1701815086286084600,10.414084716796875,-0.007673632353544235,0.02165522798895836,-0.06216297298669815
1701815086296036600,10.42403662109375,-0.009967412799596786,0.010456369258463383,-0.07115380465984344
1701815086305989400,10.4339892578125,-0.008555937558412552,0.016572585329413414,-0.07262972742319107
1701815086315941600,10.443941650390625,-0.004250671248883009,0.025472870096564293,-0.06526688486337662
1701815086325894700,10.453894775390625,-0.00014620754518546164,0.03479606285691261,-0.05343472957611084
1701815086335847700,10.46384765625,0.0027321369852870703,0.036848828196525574,-0.04297676309943199
1701815086345799700,10.473799560546874,0.005412076134234667,0.03825844079256058,-0.03690555319190025
1701815086355752700,10.483752685546875,0.009279518388211727,0.03159281238913536,-0.021793445572257042
1701815086365704400,10.493704345703126,0.009559682570397854,0.028498752042651176,-0.006926083005964756
1701815086375657500,10.503657470703125,0.014436463825404644,0.02267654985189438,0.0036189695820212364
1701815086385609700,10.513609619140626,0.019287677481770515,0.021332185715436935,0.009781790897250175
1701815086395562800,10.523562744140625,0.026503778994083405,0.012988503091037273,0.008898952975869179
1701815086405514500,10.533514404296875,0.029693713411688805,0.007939948700368404,0.001936917076818645
1701815086415467500,10.543467529296874,0.0307464599609375,0.005280249286442995,-0.007346063386648893
1701815086425419500,10.55341943359375,0.03236592933535576,0.0015398397808894515,-0.013114203698933125
1701815086435372500,10.56337255859375,0.03394438326358795,0.0037406759802252054,-0.014626879245042801
1701815086445324500,10.573324462890625,0.033492445945739746,0.008346879854798317,-0.010519219562411308
1701815086455277600,10.583277587890626,0.03508714586496353,0.018273545429110527,-0.006474943365901709
1701815086465229600,10.5932294921875,0.034924160689115524,0.02353515289723873,-0.0023547669406980276
1701815086475182600,10.6031826171875,0.0342320054769516,0.024276576936244965,0.0012860405258834362
1701815086485134600,10.613134521484374,0.029265476390719414,0.021861888468265533,0.003240001853555441
1701815086495087600,10.623087646484375,0.02165043354034424,0.005735650192946196,0.0012780509423464537
1701815086505039600,10.63303955078125,0.016502810642123222,0.001648230361752212,-0.007870174013078213
1701815086514992400,10.642992431640625,0.011254784651100636,-0.0012090750969946384,-0.015161641873419285
1701815086524944600,10.652944580078126,0.007992679253220558,0.00785339530557394,-0.022479210048913956
1701815086534897700,10.662897705078125,0.007048321887850761,0.013083311729133129,-0.01956278271973133
1701815086544850700,10.6728505859375,0.009368734434247017,0.02003522776067257,-0.00812344066798687
1701815086554802700,10.682802734375,0.01113441027700901,0.02383689023554325,0.004327903036028147
1701815086564755700,10.692755615234375,0.012523781508207321,0.0252225324511528,0.014994928613305092
1701815086574707500,10.70270751953125,0.016397349536418915,0.02009567990899086,0.023210780695080757
1701815086584660500,10.712660400390625,0.018374213948845863,0.022760972380638123,0.022244052961468697
1701815086594612500,10.722612548828126,0.018493257462978363,0.024171648547053337,0.017192834988236427
1701815086604565500,10.7325654296875,0.016765397042036057,0.021616611629724503,0.00929416622966528
1701815086614517800,10.742517822265626,0.013729128055274487,0.016684703528881073,0.003641606541350484
1701815086624470500,10.752470458984375,0.009247826412320137,0.02220224030315876,-0.00019281286222394556
1701815086634422500,10.762422607421875,0.0004183826094958931,0.025475265458226204,0.0015454323729500175
1701815086644375600,10.77237548828125,-0.005772135220468044,0.03503068909049034,0.008817194029688835
1701815086654327600,10.78232763671875,-0.01038419734686613,0.026856381446123123,0.025410817936062813
1701815086664280600,10.792280517578124,-0.013790646567940712,0.030788538977503777,0.03657878190279007
1701815086674232600,10.802232666015625,-0.014721954241394997,0.024264859035611153,0.042871832847595215
1701815086684185600,10.812185546875,-0.013952567242085934,0.012920591980218887,0.045816224068403244
1701815086694137600,10.8221376953125,-0.01330009289085865,0.007237939164042473,0.03596971929073334
1701815086704090600,10.832090576171876,-0.011491806246340275,0.005595567636191845,0.024455808103084564
1701815086714041900,10.842041748046874,-0.011118963360786438,0.005293831694871187,0.01375016663223505
1701815086723995000,10.851994873046875,-0.005477589555084705,0.0034786208998411894,0.010192982852458954
1701815086733947100,10.861947021484376,0.0015571502735838294,0.010478206910192966,0.011696603149175644
1701815086743900200,10.871900146484375,0.0022125542163848877,0.01847967505455017,0.015508918091654778
1701815086753852200,10.88185205078125,0.0024810009635984898,0.03014644980430603,0.013802098110318184
1701815086763805200,10.89180517578125,0.0016788567882031202,0.026552781462669373,0.008640093728899956
1701815086773758000,10.901758056640626,0.007269097957760096,0.021742314100265503,-0.002636263146996498
1701815086783710000,10.9117099609375,0.006572681479156017,0.024641696363687515,-0.022707710042595863
1701815086793663000,10.9216630859375,0.005423794034868479,0.013176788575947285,-0.030643396079540253
1701815086803615000,10.931614990234374,0.006660832092165947,0.012294217012822628,-0.028114991262555122
1701815086813568000,10.941568115234375,0.00800546258687973,0.010949320159852505,-0.018702048808336258
1701815086823520000,10.95152001953125,0.01076795905828476,0.012832974083721638,-0.008802279829978943
1701815086833473000,10.96147314453125,0.010098174214363098,0.018153438344597816,-0.004290618933737278
1701815086843425000,10.971425048828126,0.010646252892911434,0.026807645335793495,-0.0014884406700730324
1701815086853378000,10.9813779296875,0.012645487673580647,0.03105325624346733,-0.004340153653174639
1701815086863330000,10.991330078125,0.013139237649738789,0.04506228491663933,-0.011999937705695629
1701815086873283000,11.001282958984374,0.012800483964383602,0.04970390722155571,-0.01991858147084713
1701815086883235000,11.011235107421875,0.01378185860812664,0.04338076338171959,-0.027527498081326485
1701815086893188000,11.02118798828125,0.01792786829173565,0.042633213102817535,-0.03032488189637661
1701815086903140000,11.03114013671875,0.020738568156957626,0.031069235876202583,-0.02364194579422474
1701815086913093000,11.041093017578126,0.02461479790508747,0.0172109454870224,-0.01534699834883213
1701815086923045000,11.051045166015625,0.022347649559378624,0.009969543665647507,-0.008509065955877304
1701815086932998000,11.060997802734375,0.017418405041098595,0.0023675502743571997,-0.005173456855118275
1701815086942950000,11.070949951171874,0.013852166011929512,0.0008562062866985798,-0.0014096111990511417
1701815086952903000,11.08090283203125,0.007276288699358702,0.0023092268966138363,-0.000803209375590086
1701815086962855200,11.090855224609374,0.0017635452095419168,0.0032296155113726854,-0.0052232579328119755
1701815086972808200,11.10080810546875,-0.00236249016597867,0.003204049076884985,-0.010352506302297115
1701815086982760000,11.110760009765626,0.0026522420812398195,-0.00012969593808520585,-0.01564500667154789
1701815086992713000,11.120712890625,0.0023459785152226686,0.003055977402254939,-0.01708737388253212
1701815087002665000,11.1306650390625,0.0015683355741202831,0.004998486954718828,-0.01690335012972355
1701815087012618000,11.140617919921874,0.0016769925132393837,0.01468600146472454,-0.017913753166794777
1701815087022571000,11.150571044921875,0.003192331176251173,0.016928916797041893,-0.01070883683860302
1701815087032523300,11.160523193359374,0.002996056107804179,0.014906245283782482,-0.009897105395793915
1701815087042476000,11.17047607421875,0.0012740562669932842,0.02738368697464466,-0.018556106835603714
1701815087052428000,11.180427978515626,-0.0010876349406316876,0.027961593121290207,-0.01968262530863285
1701815087062381000,11.190381103515625,-0.002829342382028699,0.037572942674160004,-0.02454316057264805
1701815087072333000,11.2003330078125,-0.0007576693315058947,0.049491386860609055,-0.026918433606624603
1701815087082286000,11.2102861328125,0.002466087229549885,0.05586619675159454,-0.028491562232375145
1701815087092237800,11.22023779296875,0.002234392100945115,0.058037202805280685,-0.030308105051517487
1701815087102190800,11.23019091796875,0.006065881811082363,0.05745503678917885,-0.032223448157310486
1701815087112143000,11.24014306640625,0.006712231319397688,0.05441583693027496,-0.031439147889614105
1701815087122096000,11.25009619140625,0.003254915354773402,0.04494377225637436,-0.030314229428768158
1701815087132048100,11.260048095703125,0.003397128311917186,0.03586532175540924,-0.024832112714648247
1701815087142001200,11.270001220703126,0.0008740494376979768,0.025538116693496704,-0.02177400514483452
1701815087151953000,11.279952880859375,-0.0009440905996598303,0.012797021307051182,-0.014906245283782482
1701815087161906000,11.289906005859375,-0.0008178567513823509,0.009327455423772335,-0.008897354826331139
1701815087171858200,11.299858154296874,0.0024714134633541107,0.01606179028749466,-0.0017068199813365936
1701815087181811200,11.309811279296875,0.00577932596206665,0.02400733157992363,0.007495466619729996
1701815087191763200,11.31976318359375,0.004384894855320454,0.028087293729186058,0.01161324605345726
1701815087201716000,11.329716064453125,0.004549744538962841,0.018124142661690712,0.01407640427350998
1701815087211668000,11.33966796875,0.004837632179260254,0.004291151650249958,0.013889716938138008
1701815087221621000,11.34962109375,0.005952164996415377,-0.008473113179206848,0.009987120516598225
1701815087231573000,11.359572998046875,0.004547081422060728,-0.014565627090632915,0.011099789291620255
1701815087241526000,11.369526123046874,0.005792108830064535,-0.015992015600204468,0.012738964520394802
1701815087251478000,11.37947802734375,0.004792358260601759,-0.012866795994341373,0.014907577075064182
1701815087261431000,11.38943115234375,0.006672283634543419,-0.008360994048416615,0.01974307745695114
1701815087271383000,11.399383056640625,0.007833688519895077,-0.001672198879532516,0.01938168704509735
1701815087281336000,11.409336181640626,0.010898454114794731,0.0073652383871376514,0.020827516913414
1701815087291289000,11.4192890625,0.00917112734168768,0.013038836419582367,0.023457122966647148
1701815087301241000,11.429240966796876,0.006473612040281296,0.024703215807676315,0.022363096475601196
1701815087311193900,11.43919384765625,0.004277569241821766,0.025196166709065437,0.017462879419326782
1701815087321146000,11.44914599609375,0.0008532768115401268,0.019895145669579506,0.009794041514396667
1701815087331099100,11.45909912109375,0.0004500742070376873,0.009412676095962524,0.004936168901622295
1701815087341051100,11.469051025390625,0.0073202308267354965,0.0004492752777878195,0.0009869674686342478
1701815087351004200,11.479004150390624,0.012590093538165092,-0.0021350563038140535,-0.006713829003274441
1701815087360956000,11.488955810546875,0.016815997660160065,0.0013731258222833276,-0.01206917967647314
1701815087370909000,11.498908935546876,0.01926610618829727,0.007698399480432272,-0.013324594125151634
1701815087380861000,11.50886083984375,0.023033680394291878,0.014256167225539684,-0.008715993724763393
1701815087390814000,11.51881396484375,0.021817414090037346,0.017068732529878616,0.0011651329696178436
1701815087400766200,11.52876611328125,0.021229920908808708,0.017600299790501595,0.01233229972422123
1701815087410719200,11.53871923828125,0.021197697147727013,0.01696646586060524,0.01167663000524044
1701815087420671000,11.5486708984375,0.022053902968764305,0.014886803925037384,0.005282113794237375
1701815087430624000,11.5586240234375,0.02672535367310047,0.015411446802318096,-0.008248874917626381
1701815087440576000,11.568575927734376,0.026752784848213196,0.018749186769127846,-0.021761488169431686
1701815087450529000,11.578529052734375,0.02546141855418682,0.02365632727742195,-0.026824424043297768
1701815087460481000,11.58848095703125,0.0222091656178236,0.015964584425091743,-0.01841123215854168
1701815087470434000,11.59843408203125,0.021046696230769157,0.026621490716934204,-0.011627361178398132
1701815087480386000,11.608385986328125,0.018735338002443314,0.022051772102713585,0.0009736517095007002
1701815087490339000,11.618339111328124,0.01685701124370098,0.01726793684065342,0.009428922086954117
1701815087500291000,11.628291015625,0.01769856922328472,0.0052027516067028046,0.01008219551295042
1701815087510244000,11.638244140625,0.020375046879053116,-0.002522546099498868,0.005559881217777729
1701815087520195800,11.64819580078125,0.021873606368899345,-0.005783853121101856,-0.000020772657080669887
1701815087530148900,11.65814892578125,0.02317562699317932,-0.0049345712177455425,-0.0037121803034096956
1701815087540101000,11.66810107421875,0.025832928717136383,-0.0006135923322290182,-0.006928479764610529
1701815087550054100,11.67805419921875,0.028859345242381096,0.0067657604813575745,-0.008139952085912228
1701815087560007200,11.688007080078124,0.030616499483585358,0.009905095212161541,-0.011981029063463211
1701815087569959200,11.697959228515625,0.02804681472480297,0.011533351615071297,-0.01360395923256874
1701815087579912000,11.707911865234376,0.024639831855893135,0.01278663519769907,-0.016397083178162575
1701815087589864000,11.717864013671875,0.01812041364610195,0.010980213060975075,-0.016352608799934387
1701815087599817000,11.72781689453125,0.013044695369899273,0.012034558691084385,-0.012483567930758
1701815087609769200,11.737769287109375,0.008555138483643532,0.008074970915913582,-0.007652593310922384
1701815087619722200,11.74772216796875,0.004515922162681818,0.005815278738737106,-0.002626942005008459
1701815087629674000,11.757674072265624,0.001534779672510922,0.008481902070343494,-0.004463457968086004
1701815087639627000,11.767626953125,0.0004942826926708221,0.011660384014248848,-0.0075942701660096645
1701815087649579000,11.7775791015625,0.0005219795857556164,0.012443353421986103,-0.00920361839234829
1701815087659532000,11.787531982421875,0.0009704558760859072,0.014928615652024746,-0.011360778473317623
1701815087669484000,11.797484130859376,0.0031382690649479628,0.017356086522340775,-0.013230051845312119
1701815087679437000,11.80743701171875,0.002008556155487895,0.012018579989671707,-0.0094480961561203
1701815087689389000,11.81738916015625,-0.0012061456218361855,0.00899855513125658,-0.005023254547268152
1701815087699342000,11.827342041015624,-0.00598518829792738,0.0033071134239435196,0.00008016114588826895
1701815087709294000,11.837294189453125,-0.01116503681987524,-0.0016442356863990426,-0.0001853560097515583
1701815087719247400,11.847247314453124,-0.012250274419784546,-0.0030929953791201115,-0.002350239548832178
1701815087729199400,11.857199462890625,-0.013097425922751427,-0.0032208270858973265,-0.006685866042971611
1701815087739152400,11.86715234375,-0.01088780164718628,-0.0032871398143470287,-0.005586246494203806
1701815087749104400,11.8771044921875,-0.00974210910499096,-0.003922037314623594,-0.004457599017769098
1701815087759057400,11.887057373046876,-0.012224442325532436,-0.0023995081428438425,0.000182959163794294
1701815087769009400,11.897009521484375,-0.01200100313872099,-0.0011073424248024821,0.0008215851848945022
1701815087778962400,11.90696240234375,-0.014664962887763977,0.0014357101172208786,0.0032088428270071745
1701815087788914400,11.91691455078125,-0.016576314345002174,0.004905809182673693,0.0024860608391463757
1701815087798867500,11.926867431640625,-0.01860031671822071,0.00794287770986557,0.0003347593592479825
1701815087808819500,11.9368193359375,-0.016404006630182266,0.00851226132363081,-0.005312207154929638
1701815087818772200,11.946772216796875,-0.013015666976571083,0.008979646489024162,-0.007189469411969185
1701815087828724500,11.956724365234376,-0.008698683232069016,0.004867726005613804,-0.00817883387207985
1701815087838677500,11.966677490234375,-0.004837099462747574,-0.0008386294357478619,-0.0041092573665082455
1701815087848630500,11.976630615234376,-0.0005637911963276565,-0.009986055083572865,0.0018229337874799967
1701815087858582500,11.98658251953125,0.0003384877636563033,-0.013454023748636246,0.00726563623175025
1701815087868535600,11.99653564453125,-0.0007898935582488775,-0.018071943894028664,0.012084892019629478
1701815087878487300,12.0064873046875,-0.002901247702538967,-0.015439409762620926,0.014602910727262497
1701815087888440300,12.0164404296875,-0.0031555795576423407,-0.00899482611566782,0.00836578756570816
1701815087898392300,12.026392333984376,-0.005138036794960499,-0.002755839144811034,-0.00042104575550183654
1701815087908345300,12.036345458984375,-0.0009238505735993385,0.0026256104465574026,-0.008043278940021992
1701815087918297600,12.046297607421875,0.0033627734519541264,0.0075849490240216255,-0.013892113231122494
1701815087928250400,12.05625048828125,0.004841094370931387,0.01273070927709341,-0.01780802570283413
1701815087938202400,12.066202392578125,0.008466455154120922,0.011641209945082664,-0.01751001738011837
1701815087948155400,12.0761552734375,0.009573531337082386,0.010025469586253166,-0.014795191586017609
1701815087958107400,12.086107421875,0.005609150044620037,0.00731304008513689,-0.010425209999084473
1701815087968060400,12.096060302734376,0.005487177055329084,0.00039760995423421264,-0.007564442697912455
1701815087978012400,12.106012451171875,0.0062421830371022224,-0.0017339842161163688,-0.007714112289249897
1701815087987965400,12.11596533203125,0.00387410051189363,-0.003328951308503747,-0.011439608410000801
1701815087997917400,12.12591748046875,0.0057351174764335155,-0.0036402747500687838,-0.013111008331179619
