time,seconds_elapsed,z,y,x
1701815075899377000,0.027376953125,0.1791945844888687,0.13515231013298035,0.18502400815486908
1701815075909330000,0.037329833984375,0.32624128460884094,0.08071916550397873,0.1967720091342926
1701815075919282000,0.047281982421875,0.4786578118801117,0.14586572349071503,0.18186087906360626
1701815075929235000,0.05723486328125,0.5805298686027527,0.2721096873283386,0.17148759961128235
1701815075939186700,0.067186767578125,0.6161313652992249,0.4452938735485077,0.17999783158302307
1701815075949139700,0.0771396484375,0.6377450227737427,0.6797801852226257,0.19054394960403442
1701815075959092000,0.087092041015625,0.63730388879776,0.957323431968689,0.1882479339838028
1701815075969045000,0.097044921875,0.6982210874557495,1.240570068359375,0.16392794251441956
1701815075978997000,0.1069970703125,0.777228057384491,1.557525634765625,0.1400872766971588
1701815075988950000,0.116949951171875,0.8308452367782593,1.6984058618545532,0.1824166178703308
1701815075998901800,0.12690185546875,0.8462975025177002,1.723201036453247,0.2832176983356476
1701815076008854800,0.136854736328125,0.8023239374160767,1.6794884204864502,0.4011313021183014
1701815076018807000,0.14680712890625,0.7461727857589722,1.6013821363449097,0.5107420086860657
1701815076028760000,0.156760009765625,0.7333121299743652,1.5289950370788574,0.6103343963623047
1701815076038712000,0.166712158203125,0.6967686414718628,1.535942554473877,0.8633710741996765
1701815076048664800,0.176664794921875,0.635861337184906,1.1055536270141602,0.7925613522529602
1701815076058616800,0.186616943359375,0.5216537714004517,0.8685178756713867,0.8731141090393066
1701815076068569900,0.19656982421875,0.4371096193790436,0.4689595401287079,0.9494740962982178
1701815076078521900,0.20652197265625,0.16596372425556183,-0.05622084438800812,0.8938852548599243
1701815076088475000,0.216474853515625,-0.11013924330472946,-0.675614058971405,0.6635375022888184
1701815076098427000,0.226427001953125,-0.22812101244926453,-0.811093270778656,0.44772234559059143
1701815076108380000,0.2363798828125,-0.2062402218580246,-0.7158114910125732,0.26459646224975586
1701815076118332000,0.246331787109375,-0.15594768524169922,-0.5597610473632812,0.09126437455415726
1701815076128285000,0.256284912109375,-0.1602870374917984,-0.35863086581230164,-0.07875369489192963
1701815076138238000,0.266238037109375,-0.11821600049734116,-0.31301531195640564,-0.2596133053302765
1701815076148190000,0.27618994140625,-0.038105983287096024,-0.354195773601532,-0.4086983799934387
1701815076158142700,0.286142822265625,0.029226556420326233,-0.4012587070465088,-0.5145727396011353
1701815076168095000,0.296094970703125,0.08630847930908203,-0.4654313027858734,-0.5629184246063232
1701815076178048000,0.306048095703125,0.16786473989486694,-0.5730578899383545,-0.5608212351799011
1701815076188000000,0.316,0.25113195180892944,-0.767720103263855,-0.5373382568359375
1701815076197953000,0.325953125,0.2914735972881317,-0.9699582457542419,-0.5258799195289612
1701815076207904800,0.33590478515625,0.23264677822589874,-1.1637436151504517,-0.5424128174781799
1701815076217857800,0.34585791015625,0.14230090379714966,-1.3212920427322388,-0.5891331434249878
1701815076227809800,0.355809814453125,0.11256751418113708,-1.3848683834075928,-0.64799565076828
1701815076237762800,0.3657626953125,0.16782358288764954,-1.4158761501312256,-0.7105599641799927
1701815076247715000,0.375715087890625,0.2995097041130066,-1.3962230682373047,-0.7555511593818665
1701815076257668000,0.385668212890625,0.4029015898704529,-1.1872408390045166,-0.7921493649482727
1701815076267619800,0.395619873046875,0.48557090759277344,-0.9619756937026978,-0.8468754887580872
1701815076277572900,0.40557275390625,0.6204448938369751,-0.8620843887329102,-0.899598240852356
1701815076287524900,0.41552490234375,0.7929234504699707,-0.8997726440429688,-0.9770190119743347
1701815076297478000,0.425477783203125,1.0028852224349976,-1.0419975519180298,-1.0743541717529297
1701815076307430100,0.43543017578125,1.2320630550384521,-1.2561399936676025,-1.1656925678253174
1701815076317383000,0.4453828125,1.4486058950424194,-1.3699897527694702,-1.1798417568206787
1701815076327335000,0.4553349609375,1.5555232763290405,-1.1501809358596802,-1.0346190929412842
1701815076337288000,0.465287841796875,1.516784429550171,-0.7222186326980591,-0.7867984771728516
1701815076347241000,0.475240966796875,1.4061015844345093,-0.310982346534729,-0.5514343976974487
1701815076357193000,0.48519287109375,1.2355343103408813,-0.08933517336845398,-0.4613778293132782
1701815076367146000,0.49514599609375,1.1042883396148682,-0.13557270169258118,-0.502138078212738
1701815076377097700,0.50509765625,1.0849230289459229,-0.30789080262184143,-0.6135507225990295
1701815076387050800,0.51505078125,1.1800721883773804,-0.4956423342227936,-0.7571457028388977
1701815076397003000,0.5250029296875,1.3250559568405151,-0.6290748715400696,-0.8545750379562378
1701815076406956000,0.5349560546875,1.464919924736023,-0.6390886306762695,-0.8471131324768066
1701815076416908000,0.544907958984375,1.5587728023529053,-0.5722854733467102,-0.7572399377822876
1701815076426860800,0.55486083984375,1.5826480388641357,-0.5328674912452698,-0.6229388117790222
1701815076436812800,0.564812744140625,1.6182162761688232,-0.45092839002609253,-0.4257890284061432
1701815076446765800,0.574765869140625,1.6563098430633545,-0.2560446560382843,-0.2036592960357666
1701815076456718000,0.584718017578125,1.5676432847976685,-0.017390137538313866,-0.03891410306096077
1701815076466671000,0.594671142578125,1.4075335264205933,0.029382161796092987,0.015884963795542717
1701815076476622800,0.604622802734375,1.2205396890640259,-0.15642738342285156,-0.11085788160562515
1701815076486575900,0.614575927734375,0.9816493391990662,-0.5625208020210266,-0.3665383756160736
1701815076496528000,0.62452783203125,0.6799986958503723,-1.1267271041870117,-0.6694344878196716
1701815076506481000,0.63448095703125,0.4214203953742981,-1.657947301864624,-0.9086601138114929
1701815076516434000,0.644433837890625,0.3115032911300659,-2.152104139328003,-1.0235326290130615
1701815076526386000,0.654385986328125,0.279409795999527,-2.466269016265869,-1.0010324716567993
1701815076536338700,0.664338623046875,0.32522010803222656,-2.447096586227417,-0.7907866835594177
1701815076546291000,0.674291015625,0.44614946842193604,-1.966938853263855,-0.49922165274620056
1701815076556244000,0.684243896484375,0.5965624451637268,-1.2004339694976807,-0.2821712791919708
1701815076566196000,0.694196044921875,0.7789913415908813,-0.47333937883377075,-0.14826035499572754
1701815076576149000,0.70414892578125,0.9703933000564575,-0.020207850262522697,-0.11703817546367645
1701815076586100700,0.714100830078125,1.1530876159667969,0.09463751316070557,-0.16710267961025238
1701815076596053800,0.7240537109375,1.2694060802459717,0.015489250421524048,-0.27920374274253845
1701815076606006000,0.734006103515625,1.278374195098877,-0.19705577194690704,-0.43381088972091675
1701815076615959000,0.743958984375,1.2628883123397827,-0.5758955478668213,-0.588533341884613
1701815076625911000,0.7539111328125,1.3110731840133667,-0.9332523941993713,-0.6589358448982239
1701815076635864000,0.763864013671875,1.451220989227295,-1.0663206577301025,-0.6314321756362915
1701815076645815800,0.77381591796875,1.664009928703308,-0.8719397783279419,-0.45362383127212524
1701815076655768800,0.783768798828125,1.8665510416030884,-0.5256858468055725,-0.21180535852909088
1701815076665721900,0.793721923828125,2.0410661697387695,-0.12517225742340088,-0.07488586008548737
1701815076675673900,0.803673828125,2.2583932876586914,0.22732222080230713,-0.04408557340502739
1701815076685627000,0.813626953125,2.590865135192871,0.3757295608520508,-0.10563681274652481
1701815076695579000,0.823578857421875,3.0130438804626465,0.41746261715888977,-0.18382234871387482
1701815076705531000,0.83353076171875,3.3591625690460205,0.4855023920536041,-0.1781356930732727
1701815076715483000,0.84348291015625,3.600135087966919,0.485503226518631,-0.05301337689161301
1701815076725436000,0.853435791015625,3.802394151687622,0.3616233468055725,0.14507493376731873
1701815076735388200,0.86338818359375,4.014407157897949,0.19111503660678864,0.3302841782569885
1701815076745341200,0.873341064453125,4.243009090423584,0.12676534056663513,0.4486526548862457
1701815076755293000,0.88329296875,4.404608726501465,0.4304117262363434,0.5143408179283142
1701815076765246000,0.893245849609375,4.388217449188232,0.8718796968460083,0.5215460062026978
1701815076775198000,0.903197998046875,4.163480281829834,1.2673598527908325,0.42073729634284973
1701815076785151000,0.91315087890625,3.8873252868652344,1.4573500156402588,0.27437156438827515
1701815076795103000,0.92310302734375,3.762145519256592,1.3044970035552979,0.1856316179037094
1701815076805055700,0.9330556640625,3.772998571395874,0.9031543731689453,0.1534758061170578
1701815076815008800,0.9430087890625,3.8126273155212402,0.4173642694950104,0.15514904260635376
1701815076824961000,0.9529609375,3.8027470111846924,-0.3120824694633484,0.15555331110954285
1701815076834914000,0.9629140625,3.6485133171081543,-1.1194225549697876,0.07688183337450027
1701815076844866000,0.972865966796875,3.4653871059417725,-1.6757006645202637,-0.0062197120860219
1701815076854819000,0.982819091796875,3.4011101722717285,-1.9270251989364624,0.0066559528931975365
1701815076864770800,0.992770751953125,3.511775493621826,-1.819252371788025,0.12069037556648254
1701815076874723800,1.002723876953125,3.7444405555725098,-1.3226194381713867,0.31637686491012573
1701815076884676000,1.012676025390625,3.9330356121063232,-0.612777590751648,0.5514488220214844
1701815076894629000,1.022629150390625,4.049091339111328,0.038632385432720184,0.795326292514801
1701815076904581000,1.0325810546875,4.153204917907715,0.46247127652168274,1.021869421005249
1701815076914534000,1.042533935546875,4.154571533203125,0.7476325035095215,1.1782689094543457
1701815076924486000,1.05248583984375,4.00608491897583,0.7497308254241943,1.2465846538543701
1701815076934439000,1.06243896484375,3.754115343093872,0.4430425763130188,1.247268795967102
1701815076944391000,1.072390869140625,3.477757215499878,0.004903051070868969,1.2135106325149536
1701815076954344000,1.082343994140625,3.2338972091674805,-0.36414042115211487,1.161874771118164
1701815076964296000,1.0922958984375,3.061385154724121,-0.5460439324378967,1.0721406936645508
1701815076974249000,1.1022490234375,2.9241271018981934,-0.5467681288719177,0.9770368337631226
1701815076984202000,1.112201904296875,2.7717032432556152,-0.46027395129203796,0.9219898581504822
1701815076994154000,1.122154052734375,2.632258653640747,-0.3107551634311676,0.8852933049201965
1701815077004107000,1.13210693359375,2.5268502235412598,-0.19337821006774902,0.8298234343528748
1701815077014059000,1.14205908203125,2.439091920852661,-0.18421226739883423,0.7641521096229553
1701815077024011800,1.15201171875,2.4179892539978027,-0.25893551111221313,0.7145571708679199
1701815077033964000,1.161964111328125,2.464611768722534,-0.33173897862434387,0.7578585743904114
1701815077043917000,1.1719169921875,2.456874370574951,-0.7689218521118164,0.8989278078079224
1701815077053869000,1.181869140625,2.226731061935425,-0.5557202100753784,0.9310115575790405
1701815077063822000,1.191822021484375,1.924988865852356,-0.6483420133590698,0.9978095293045044
1701815077073773800,1.20177392578125,1.5837633609771729,-0.8922398090362549,1.107775330543518
1701815077083726800,1.211726806640625,1.288256049156189,-0.9600955247879028,1.2051035165786743
1701815077093678800,1.221678955078125,1.1344679594039917,-0.9448404312133789,1.264583945274353
1701815077103632000,1.2316318359375,1.113690733909607,-0.9127005934715271,1.3223422765731812
1701815077113584000,1.241584228515625,1.167120337486267,-0.7299656867980957,1.3311161994934082
1701815077123537200,1.251537109375,1.2310646772384644,-0.37718868255615234,1.1965688467025757
1701815077133490000,1.261489990234375,1.252198576927185,-0.007113929837942123,0.9667053818702698
1701815077143442000,1.27144189453125,1.187910556793213,0.36735793948173523,0.6788312792778015
1701815077153395000,1.28139501953125,1.110648512840271,0.7015056610107422,0.424722284078598
1701815077163347000,1.291346923828125,1.073430061340332,0.8792367577552795,0.29766660928726196
1701815077173300000,1.301300048828125,1.0203509330749512,0.7838411331176758,0.30480891466140747
1701815077183252000,1.311251953125,0.9065747857093811,0.4729596972465515,0.5112656950950623
1701815077193205000,1.321205078125,0.7241578102111816,0.14003059267997742,0.8923198580741882
1701815077203157000,1.331156982421875,0.5984744429588318,0.0676213800907135,1.1142724752426147
1701815077213110000,1.341110107421875,0.6754367351531982,0.6956127882003784,0.5766797065734863
1701815077223062000,1.35106201171875,0.9082230925559998,1.2741235494613647,-0.4630703330039978
1701815077233015000,1.36101513671875,0.824624240398407,0.8180671334266663,-0.4935998022556305
1701815077242966800,1.370966796875,0.6920885443687439,0.403438001871109,-0.12432455271482468
1701815077252919800,1.380919921875,0.6505388021469116,0.4529086649417877,0.14577604830265045
1701815077262872000,1.3908720703125,0.6485033631324768,0.5852329134941101,0.3543867766857147
1701815077272825000,1.4008251953125,0.635919988155365,0.6962089538574219,0.5368384122848511
1701815077282777000,1.410777099609375,0.6158620715141296,0.8569842576980591,0.5726674795150757
1701815077292729900,1.420729736328125,0.6089282631874084,1.0092318058013916,0.5156803727149963
1701815077302683000,1.430682861328125,0.6045518517494202,1.0876384973526,0.3843737244606018
1701815077312635000,1.440634765625,0.5842275619506836,1.058359146118164,0.3535119295120239
1701815077322588000,1.450587890625,0.6467947959899902,0.9040555953979492,0.4425823986530304
1701815077332540200,1.4605400390625,0.666067898273468,0.8333816528320312,0.5258973836898804
1701815077342493200,1.4704931640625,0.6295463442802429,0.7670766711235046,0.5871759057044983
1701815077352445000,1.48044482421875,0.6406846046447754,0.6524964570999146,0.5817144513130188
1701815077362398000,1.49039794921875,0.654768168926239,0.49955350160598755,0.4972568452358246
1701815077372350000,1.500349853515625,0.6193132400512695,0.3627742528915405,0.36295896768569946
1701815077382303000,1.510302978515625,0.5766547322273254,0.29642346501350403,0.2540031671524048
1701815077392255000,1.5202548828125,0.5611674189567566,0.2685031592845917,0.14041796326637268
1701815077402207700,1.530207763671875,0.541038453578949,0.20591968297958374,-0.001325847115367651
1701815077412160000,1.540159912109375,0.5061488747596741,0.14766499400138855,-0.1320071816444397
1701815077422113000,1.550113037109375,0.5011653304100037,0.1322104036808014,-0.22197222709655762
1701815077432065000,1.56006494140625,0.5072894096374512,0.14515984058380127,-0.2686213254928589
1701815077442018000,1.57001806640625,0.5050491690635681,0.16881564259529114,-0.2717079222202301
1701815077451969800,1.5799697265625,0.5056519508361816,0.14475122094154358,-0.22177141904830933
1701815077461922800,1.5899228515625,0.548888623714447,0.11237625032663345,-0.1529172658920288
1701815077471875800,1.599875732421875,0.5730658769607544,0.08957266062498093,-0.09894607961177826
1701815077481828000,1.609828125,0.5790843367576599,0.05753004178404808,-0.040319785475730896
1701815077491781000,1.619781005859375,0.6010019779205322,0.030204055830836296,0.03894926235079765
1701815077501733000,1.629733154296875,0.624326765537262,0.04451215639710426,0.09309611469507217
1701815077511686000,1.639685791015625,0.6456058621406555,0.05826161429286003,0.11487912386655807
1701815077521638000,1.649637939453125,0.6656634211540222,0.0913628339767456,0.11063697189092636
1701815077531591000,1.6595908203125,0.6837795376777649,0.15592367947101593,0.10508428514003754
1701815077541543000,1.66954296875,0.6962247490882874,0.24926775693893433,0.10124640166759491
1701815077551496000,1.679495849609375,0.7177823781967163,0.31107476353645325,0.07479486614465714
1701815077561448000,1.689447998046875,0.7805877327919006,0.29505476355552673,-0.013452437706291676
1701815077571401000,1.69940087890625,0.7946928143501282,0.21361473202705383,-0.111465685069561
1701815077581353000,1.70935302734375,0.796044111251831,0.06960667669773102,-0.17539405822753906
1701815077591306000,1.719305908203125,0.7847930788993835,-0.0627896636724472,-0.19881662726402283
1701815077601258000,1.729258056640625,0.7595383524894714,-0.13414612412452698,-0.19403332471847534
1701815077611211000,1.7392109375,0.7365496158599854,-0.1387220323085785,-0.1648721992969513
1701815077621163000,1.7491630859375,0.7081704139709473,-0.1143740713596344,-0.0911276564002037
1701815077631116000,1.759115966796875,0.6677446365356445,-0.024960748851299286,-0.035618700087070465
1701815077641068000,1.769068115234375,0.6765655279159546,0.05033906549215317,-0.013881709426641464
1701815077651021000,1.77902099609375,0.7345835566520691,0.10406994074583054,-0.0228134598582983
1701815077660974000,1.78897412109375,0.7946442365646362,0.13522732257843018,-0.015611739829182625
1701815077670925800,1.79892578125,0.8617014288902283,0.1435212641954422,0.02229492738842964
1701815077680878800,1.80887890625,0.9109773635864258,0.15835480391979218,0.05744412541389465
1701815077690830800,1.818830810546875,0.9424174427986145,0.18451909720897675,0.08858752250671387
1701815077700783900,1.828783935546875,0.9679241180419922,0.19643062353134155,0.11866020411252975
1701815077710736100,1.838736083984375,1.0080292224884033,0.21735188364982605,0.13518983125686646
1701815077720689000,1.84868896484375,1.0595717430114746,0.26538705825805664,0.1373046487569809
1701815077730641000,1.858640869140625,1.1110012531280518,0.32029008865356445,0.12269631028175354
1701815077740594000,1.868593994140625,1.1591757535934448,0.3649531602859497,0.09021080285310745
1701815077750546000,1.8785458984375,1.2325055599212646,0.39355623722076416,0.05617889016866684
1701815077760499000,1.8884990234375,1.313724160194397,0.39740636944770813,0.03908592462539673
1701815077770451000,1.898450927734375,1.3782213926315308,0.3223263621330261,0.017408035695552826
1701815077780404000,1.908404052734375,1.449262022972107,0.17546501755714417,-0.01084890216588974
1701815077790356000,1.91835595703125,1.5151959657669067,0.00875202938914299,-0.02670782059431076
1701815077800309000,1.92830908203125,1.5308837890625,-0.10009855777025223,-0.018015529960393906
1701815077810261000,1.938260986328125,1.4935599565505981,-0.13465476036071777,0.011501029133796692
1701815077820214000,1.948214111328125,1.4279454946517944,-0.09993486106395721,0.05137813836336136
1701815077830166800,1.958166748046875,1.3392292261123657,-0.06315713375806808,0.08552313596010208
1701815077840118800,1.968118896484375,1.2480665445327759,-0.09590788930654526,0.10693361610174179
1701815077850071800,1.97807177734375,1.1755658388137817,-0.1505843997001648,0.08610719442367554
1701815077860024000,1.988024169921875,1.1300278902053833,-0.20935770869255066,0.04206809774041176
1701815077869977000,1.99797705078125,1.1357616186141968,-0.2661866843700409,0.02557404525578022
1701815077879928800,2.0079287109375,1.157725214958191,-0.22750960290431976,0.06534568965435028
1701815077889881900,2.0178818359375,1.1667757034301758,-0.08727432042360306,0.18093658983707428
1701815077899833900,2.027833740234375,1.1689677238464355,0.10612363368272781,0.3350289463996887
1701815077909787000,2.037786865234375,1.153035283088684,0.2997906506061554,0.4880004823207855
1701815077919739000,2.04773876953125,1.0955445766448975,0.5241606831550598,0.6068013906478882
1701815077929692000,2.05769189453125,0.9904677867889404,0.722885251045227,0.6972008943557739
1701815077939644000,2.067643798828125,0.8838323950767517,0.8218962550163269,0.7700425982475281
1701815077949597000,2.077596923828125,0.8031308054924011,0.8787805438041687,0.8032439351081848
1701815077959549000,2.087548828125,0.7377243638038635,0.9067940711975098,0.7970814108848572
1701815077969502000,2.097501953125,0.6851925849914551,0.8457193970680237,0.7742279171943665
1701815077979454000,2.107453857421875,0.6454336643218994,0.7509598731994629,0.6933488249778748
1701815077989406700,2.11740673828125,0.6318578124046326,0.6440783739089966,0.5850229263305664
1701815077999359700,2.12735986328125,0.6090283989906311,0.491177499294281,0.4846577048301697
1701815078009312000,2.13731201171875,0.5669373273849487,0.30830374360084534,0.4027749300003052
1701815078019265000,2.14726513671875,0.5108106732368469,0.13742710649967194,0.3325361907482147
1701815078029217000,2.157217041015625,0.4674243927001953,0.018031369894742966,0.2678680419921875
1701815078039170000,2.167170166015625,0.4515170753002167,-0.007343761622905731,0.20753279328346252
1701815078049121800,2.177121826171875,0.491838276386261,0.03819797933101654,0.14288230240345
1701815078059074800,2.18707470703125,0.56892991065979,0.12723197042942047,0.08139283955097198
1701815078069027000,2.197027099609375,0.6241898536682129,0.15798531472682953,0.04119802638888359
1701815078078980000,2.20697998046875,0.6235288381576538,0.18121448159217834,0.018850374966859818
1701815078088932000,2.21693212890625,0.5958815217018127,0.3677573502063751,0.0006995962467044592
1701815078098884900,2.226884765625,0.5727812647819519,0.6768598556518555,-0.00017498573288321495
1701815078108836900,2.2368369140625,0.6271253228187561,0.9471150636672974,0.035823553800582886
1701815078118790000,2.246789794921875,0.7532861828804016,1.1221742630004883,0.10420660674571991
1701815078128742000,2.256741943359375,0.8258634209632874,1.2370785474777222,0.20876185595989227
1701815078138695000,2.26669482421875,0.8219608068466187,1.250099539756775,0.3385981321334839
1701815078148648000,2.27664794921875,0.794967770576477,1.1872215270996094,0.442764550447464
1701815078158600000,2.286599853515625,0.7396834492683411,1.0665867328643799,0.4959105849266052
1701815078168553000,2.296552978515625,0.656631588935852,0.8461764454841614,0.5120868682861328
1701815078178505000,2.3065048828125,0.5773008465766907,0.5631149411201477,0.49818965792655945
1701815078188458000,2.3164580078125,0.5120301842689514,0.31240174174308777,0.4441085159778595
1701815078198410000,2.326409912109375,0.4517367482185364,0.11864986270666122,0.34538114070892334
1701815078208362800,2.33636279296875,0.39016351103782654,-0.0076989829540252686,0.21721525490283966
1701815078218315000,2.34631494140625,0.30760154128074646,-0.019836073741316795,0.06719539314508438
1701815078228268000,2.35626806640625,0.19675546884536743,0.10678543150424957,-0.08328794687986374
1701815078238220000,2.366219970703125,0.09827843308448792,0.2669804096221924,-0.21656957268714905
1701815078248173000,2.376173095703125,0.06466767191886902,0.3194878101348877,-0.31724947690963745
1701815078258124800,2.386124755859375,0.08722757548093796,0.24526922404766083,-0.37479081749916077
1701815078268077800,2.396077880859375,0.12278130650520325,0.10760124772787094,-0.39955538511276245
1701815078278029800,2.40602978515625,0.18981680274009705,-0.004784152377396822,-0.3743986487388611
1701815078287982800,2.41598291015625,0.3170253336429596,0.027112793177366257,-0.1938084363937378
1701815078297936000,2.425935791015625,0.357532262802124,0.09652142971754074,-0.03875653073191643
1701815078307888000,2.43588818359375,0.3890794515609741,0.10895129293203354,0.12439100444316864
1701815078317841000,2.4458408203125,0.4288841187953949,-0.012440120801329613,0.2560369074344635
1701815078327793000,2.45579296875,0.4174439311027527,-0.14920733869075775,0.30378514528274536
1701815078337746000,2.465745849609375,0.37119975686073303,-0.22868938744068146,0.27564752101898193
1701815078347698000,2.475697998046875,0.3278551399707794,-0.21199405193328857,0.22489123046398163
1701815078357651000,2.48565087890625,0.3316349685192108,-0.04103616625070572,0.19435915350914001
1701815078367603000,2.49560302734375,0.372410386800766,0.1968611180782318,0.17872357368469238
1701815078377556000,2.505555908203125,0.4125114679336548,0.39250677824020386,0.1625930666923523
1701815078387508000,2.515508056640625,0.4441547095775604,0.47821280360221863,0.15592461824417114
1701815078397461000,2.5254609375,0.46461552381515503,0.42593151330947876,0.1520310789346695
1701815078407413000,2.5354130859375,0.471020370721817,0.2415175437927246,0.1645551472902298
1701815078417366000,2.545365966796875,0.4590148329734802,-0.01439838670194149,0.19460253417491913
1701815078427318800,2.55531884765625,0.4708263874053955,-0.3426366448402405,0.25052502751350403
1701815078437270800,2.565270751953125,0.5378104448318481,-0.6555127501487732,0.33224251866340637
1701815078447223800,2.575223876953125,0.653569221496582,-0.8670642375946045,0.42277565598487854
1701815078457176000,2.585176025390625,0.8142073750495911,-0.9856494665145874,0.4954562485218048
1701815078467129000,2.595129150390625,0.9640937447547913,-0.9809955954551697,0.5348774194717407
1701815078477080800,2.605080810546875,1.0572924613952637,-0.820253312587738,0.5184776186943054
1701815078487033900,2.615033935546875,1.0639560222625732,-0.4815966784954071,0.42228516936302185
1701815078496985900,2.62498583984375,0.9752900004386902,-0.03287375718355179,0.2421548068523407
1701815078506939000,2.63493896484375,0.7945793271064758,0.39136847853660583,0.05991123616695404
1701815078516891000,2.644890869140625,0.5856069326400757,0.7064236402511597,-0.026039889082312584
1701815078526844000,2.654843994140625,0.5474548935890198,0.6467149257659912,-0.09262509644031525
1701815078536796000,2.6647958984375,0.5634642243385315,0.4991217255592346,-0.11431015282869339
1701815078546749000,2.6747490234375,0.522161602973938,0.4000386595726013,-0.09944159537553787
1701815078556701000,2.684700927734375,0.42170989513397217,0.32663100957870483,-0.08580780774354935
1701815078566654000,2.694654052734375,0.28972169756889343,0.24535489082336426,-0.10643640905618668
1701815078576607000,2.70460693359375,0.19168539345264435,0.14495930075645447,-0.16438493132591248
1701815078586558700,2.714558837890625,0.1415536105632782,-0.004330127965658903,-0.2180963009595871
1701815078596511700,2.72451171875,0.1450285017490387,0.010551616549491882,-0.26586008071899414
1701815078606464000,2.734464111328125,0.13265623152256012,0.0252703744918108,-0.2768949270248413
1701815078616417000,2.7444169921875,0.09591659158468246,0.08687622100114822,-0.25770899653434753
1701815078626369000,2.754369140625,0.0899927169084549,0.1692785918712616,-0.22969305515289307
1701815078636322000,2.764322021484375,0.1354701817035675,0.18193499743938446,-0.19092246890068054
1701815078646273800,2.774273681640625,0.16929417848587036,0.09736152738332748,-0.1587158441543579
1701815078656226800,2.784226806640625,0.1893395334482193,0.014637080952525139,-0.15148137509822845
1701815078666178800,2.7941787109375,0.2047967165708542,-0.04716973751783371,-0.12938621640205383
1701815078676131800,2.8041318359375,0.2277347892522812,-0.079200379550457,-0.08659081906080246
1701815078686084000,2.814083984375,0.24827778339385986,-0.07330338656902313,-0.030773838981986046
1701815078696036900,2.824036865234375,0.27022331953048706,-0.0671035423874855,0.025977591052651405
1701815078705990000,2.833989990234375,0.27883103489875793,0.008799789473414421,0.05225209891796112
1701815078715942700,2.843942626953125,0.26493996381759644,0.1235567256808281,0.06222696602344513
1701815078725895700,2.853895751953125,0.24660137295722961,0.17545229196548462,0.08127013593912125
1701815078735847400,2.863847412109375,0.23386640846729279,0.16574347019195557,0.104319266974926
1701815078745800400,2.873800537109375,0.2184656709432602,0.1417037695646286,0.11136198788881302
1701815078755752400,2.88375244140625,0.19626902043819427,0.10821985453367233,0.09338857978582382
1701815078765705500,2.89370556640625,0.1739283800125122,0.05572886019945145,0.06706995517015457
1701815078775657700,2.90365771484375,0.1644642949104309,-0.0063073476776480675,0.05307770147919655
1701815078785610500,2.913610595703125,0.16339543461799622,-0.04041321203112602,0.04058743268251419
1701815078795562500,2.9235625,0.17030102014541626,-0.02468111738562584,0.013006937690079212
1701815078805515500,2.933515625,0.17255745828151703,0.008806668221950531,-0.02126425877213478
1701815078815467500,2.943467529296875,0.16992785036563873,0.014713825657963753,-0.05072601139545441
1701815078825420500,2.953420654296875,0.15540193021297455,-0.032538242638111115,-0.07830605655908585
1701815078835372500,2.96337255859375,0.14031273126602173,-0.07492484152317047,-0.1068253144621849
1701815078845325600,2.97332568359375,0.1298561990261078,-0.09165504574775696,-0.13565081357955933
1701815078855278600,2.983278564453125,0.12781329452991486,-0.10096359252929688,-0.14941242337226868
1701815078865230600,2.993230712890625,0.12114807963371277,-0.17466436326503754,-0.1271589696407318
1701815078875183600,3.00318359375,0.12054060399532318,-0.10742087662220001,-0.09868684411048889
1701815078885135600,3.013135498046875,0.11416799575090408,-0.027331717312335968,-0.05484718456864357
1701815078895088400,3.02308837890625,0.12688405811786652,-0.009676557965576649,0.0015191505663096905
1701815078905040400,3.033040283203125,0.154541015625,-0.031944580376148224,0.044937267899513245
1701815078914993400,3.042993408203125,0.16488634049892426,-0.07182621955871582,0.07722382992506027
1701815078924945700,3.052945556640625,0.16581180691719055,-0.12552380561828613,0.10845772922039032
1701815078934898700,3.062898681640625,0.16765443980693817,-0.16337211430072784,0.1059250608086586
1701815078944850400,3.072850341796875,0.18388579785823822,-0.17057865858078003,0.07205108553171158
1701815078954803500,3.082803466796875,0.2033947855234146,-0.16816210746765137,0.026047371327877045
1701815078964755500,3.09275537109375,0.2118442803621292,-0.15722674131393433,-0.011645391583442688
1701815078974708500,3.10270849609375,0.21508800983428955,-0.13578243553638458,-0.029810281470417976
1701815078984660700,3.11266064453125,0.21058019995689392,-0.08468799293041229,-0.015943147242069244
1701815078994613800,3.12261376953125,0.21538932621479034,-0.029272940009832382,0.018849721178412437
1701815079004566500,3.13256640625,0.22741645574569702,-0.0038506705313920975,0.04727553948760033
1701815079014518500,3.1425185546875,0.22353516519069672,-0.016160599887371063,0.05920569971203804
1701815079024471600,3.152471435546875,0.20307278633117676,-0.07119162380695343,0.04560048505663872
1701815079034423600,3.162423583984375,0.1850343942642212,-0.11115608364343643,0.01666577160358429
1701815079044376600,3.17237646484375,0.17095357179641724,-0.1502188891172409,-0.00838301982730627
1701815079054328300,3.182328369140625,0.1630314737558365,-0.21309559047222137,-0.019728884100914
1701815079064281300,3.19228125,0.14953775703907013,-0.20055943727493286,-0.023290177807211876
1701815079074233600,3.202233642578125,0.12465451657772064,-0.14002418518066406,-0.01880115270614624
1701815079084186600,3.2121865234375,0.1090322881937027,-0.1151520311832428,0.0032874583266675472
1701815079094138600,3.222138671875,0.12531778216362,-0.11371205747127533,0.024121101945638657
1701815079104091600,3.232091552734375,0.13673032820224762,-0.11215432733297348,0.041161589324474335
1701815079114043400,3.24204345703125,0.14354056119918823,-0.11642097681760788,0.051216088235378265
1701815079123996400,3.251996337890625,0.1486518681049347,-0.1521216332912445,0.06634058058261871
1701815079133948700,3.26194873046875,0.15046335756778717,-0.17888347804546356,0.07962176203727722
1701815079143901700,3.271901611328125,0.14901582896709442,-0.19328150153160095,0.09493962675333023
1701815079153854700,3.281854736328125,0.13712534308433533,-0.2247006744146347,0.11862258613109589
1701815079163806500,3.291806396484375,0.11526557803153992,-0.24128377437591553,0.14235413074493408
1701815079173759500,3.301759521484375,0.10357829183340073,-0.24357622861862183,0.15162459015846252
1701815079183711500,3.31171142578125,0.09541364759206772,-0.23452502489089966,0.14061382412910461
1701815079193664500,3.32166455078125,0.09831836074590683,-0.23862123489379883,0.1134977862238884
1701815079203616500,3.331616455078125,0.10751200467348099,-0.23522153496742249,0.07804545760154724
1701815079213569500,3.341569580078125,0.11648818850517273,-0.2132190316915512,0.03933907300233841
1701815079223521500,3.351521484375,0.11653933674097061,-0.17335936427116394,0.020786358043551445
1701815079233474600,3.361474609375,0.11280106008052826,-0.1333184838294983,0.023564035072922707
1701815079243426600,3.371426513671875,0.10080011188983917,-0.10213960707187653,0.042158741503953934
1701815079253379600,3.381379638671875,0.09162844717502594,-0.11049953103065491,0.06726889312267303
1701815079263331600,3.39133154296875,0.07015524804592133,-0.14110279083251953,0.08068505674600601
1701815079273284400,3.401284423828125,0.05388280376791954,-0.15661944448947906,0.07798301428556442
1701815079283236600,3.411236572265625,0.048225514590740204,-0.1415998488664627,0.06171830743551254
1701815079293189600,3.421189697265625,0.05488022044301033,-0.10083243250846863,0.044767819344997406
1701815079303142700,3.431142578125,0.056054938584566116,-0.06511824578046799,0.020227964967489243
1701815079313094700,3.4410947265625,0.05933675169944763,-0.03470867499709129,0.009793167933821678
1701815079323047700,3.451047607421875,0.06637006253004074,-0.012386767193675041,0.0029386221431195736
1701815079332999400,3.46099951171875,0.0760653018951416,0.0009530065581202507,-0.006923595909029245
1701815079342952400,3.470952392578125,0.08357420563697815,-0.0013682940043509007,-0.01171470433473587
1701815079352904400,3.480904541015625,0.08898840844631195,-0.04138495400547981,-0.010802572593092918
1701815079362857500,3.490857421875,0.08281154185533524,-0.05925391986966133,-0.017249420285224915
1701815079372809700,3.500809814453125,0.08378972113132477,-0.04689552262425423,-0.024715058505535126
1701815079382762500,3.510762451171875,0.09075496345758438,-0.029920265078544617,-0.026464449241757393
1701815079392714500,3.520714599609375,0.09312091022729874,-0.029379110783338547,-0.018728498369455338
1701815079402667500,3.53066748046875,0.09422888606786728,-0.032003212720155716,-0.0033675506711006165
1701815079412619500,3.54061962890625,0.10009396076202393,-0.036155879497528076,0.021241389214992523
1701815079422572500,3.550572509765625,0.1079682782292366,-0.03382033109664917,0.04084302484989166
1701815079432524500,3.560524658203125,0.11480115354061127,-0.03152655065059662,0.046464692801237106
1701815079442477600,3.5704775390625,0.1275472640991211,-0.04655330628156662,0.027605827897787094
1701815079452430600,3.5804306640625,0.14813989400863647,-0.06655284762382507,0.00044797686859965324
1701815079462382600,3.590382568359375,0.16621485352516174,-0.08549777418375015,-0.013950969092547894
1701815079472335600,3.600335693359375,0.16718131303787231,-0.08690179139375687,-0.01577763259410858
1701815079482287600,3.61028759765625,0.15248343348503113,-0.07776883244514465,-0.003950116690248251
1701815079492240400,3.620240478515625,0.14756110310554504,-0.050358518958091736,0.014043796807527542
1701815079502192400,3.6301923828125,0.15119226276874542,-0.01285708136856556,0.030321473255753517
1701815079512145400,3.6401455078125,0.16314132511615753,0.026741458103060722,0.04517578333616257
1701815079522097700,3.65009765625,0.16825740039348602,0.034542832523584366,0.05698605999350548
1701815079532050700,3.66005078125,0.1623438447713852,0.025028958916664124,0.06352492421865463
1701815079542002400,3.67000244140625,0.15249812602996826,0.011566679924726486,0.05690395459532738
1701815079551955500,3.67995556640625,0.13811251521110535,-0.016297707334160805,0.04613306373357773
1701815079561907500,3.689907470703125,0.1223759651184082,-0.045337170362472534,0.030046800151467323
1701815079571860500,3.699860595703125,0.11870480328798294,-0.06733701378107071,0.004023721441626549
1701815079581812700,3.709812744140625,0.12560409307479858,-0.07108043879270554,-0.01693282090127468
1701815079591765800,3.719765869140625,0.13539281487464905,-0.05461598187685013,-0.027716491371393204
1701815079601717500,3.729717529296875,0.14996999502182007,-0.04163941368460655,-0.01942608319222927
1701815079611670500,3.73967041015625,0.16746483743190765,-0.04257791489362717,-0.002920609898865223
1701815079621623600,3.74962353515625,0.1810651421546936,-0.06711529940366745,0.005890254396945238
1701815079631575600,3.759575439453125,0.18766790628433228,-0.08340346068143845,0.003322700737044215
1701815079641528600,3.769528564453125,0.18361087143421173,-0.08477964997291565,-0.017120596021413803
1701815079651480300,3.779480224609375,0.17186181247234344,-0.08586569130420685,-0.04326537996530533
1701815079661433300,3.789433349609375,0.16686387360095978,-0.06118591129779816,-0.06767453998327255
1701815079671385600,3.799385498046875,0.16976138949394226,-0.007927748374640942,-0.09026986360549927
1701815079681338600,3.809338623046875,0.18320731818675995,0.03143266215920448,-0.10388872772455215
1701815079691290600,3.81929052734375,0.1986832171678543,0.055763568729162216,-0.11052026599645615
1701815079701243600,3.82924365234375,0.20739983022212982,0.08585839718580246,-0.09887111932039261
1701815079711195000,3.83919482421875,0.1997179388999939,0.12459700554609299,-0.07617166638374329
1701815079721148000,3.84914794921875,0.1765652894973755,0.1749987006187439,-0.058486200869083405
1701815079731100200,3.85910009765625,0.15239951014518738,0.2217816561460495,-0.05211405083537102
1701815079741053200,3.86905322265625,0.1071484386920929,0.24939477443695068,-0.04443031921982765
1701815079751005000,3.8790048828125,0.06790675967931747,0.24190011620521545,-0.029338719323277473
1701815079760958000,3.8889580078125,0.02523951232433319,0.18868926167488098,-0.007059009280055761
1701815079770910000,3.898909912109375,-0.02879868820309639,0.08995496481657028,0.013230016455054283
1701815079780863000,3.908863037109375,-0.06821542233228683,-0.027041342109441757,0.029596636071801186
1701815079790816000,3.91881591796875,-0.08538109809160233,-0.15082508325576782,0.0454978384077549
1701815079800768300,3.928768310546875,-0.09353169798851013,-0.22555524110794067,0.06329388171434402
1701815079810721300,3.93872119140625,-0.10622459650039673,-0.24058665335178375,0.08309821784496307
1701815079820673000,3.948673095703125,-0.10067983716726303,-0.1754387617111206,0.09516353905200958
1701815079830626000,3.9586259765625,-0.08181879669427872,-0.07782192528247833,0.08920657634735107
1701815079840578000,3.968578125,-0.06525789946317673,0.03564325347542763,0.07218920439481735
1701815079850531000,3.978531005859375,-0.05298684537410736,0.1212708130478859,0.05100003257393837
1701815079860482800,3.98848291015625,-0.041053131222724915,0.17887914180755615,0.02393229864537716
1701815079870435800,3.998435791015625,-0.03036533296108246,0.21733734011650085,-0.013172460719943047
1701815079880388000,4.00838818359375,-0.018884792923927307,0.2442164421081543,-0.05491277575492859
1701815079890341000,4.018341064453125,0.0016162218526005745,0.29589614272117615,-0.08987155556678772
1701815079900293000,4.028293212890625,0.035029999911785126,0.435828298330307,-0.1090342104434967
1701815079910246100,4.03824609375,0.076963871717453,0.6099961400032043,-0.08524658530950546
1701815079920198000,4.048197998046875,0.11314196139574051,0.7538819313049316,-0.028499344363808632
1701815079930151000,4.05815087890625,0.14910583198070526,0.889546811580658,0.04487793147563934
1701815079940103200,4.068103271484375,0.17669439315795898,0.9899636507034302,0.10482148081064224
1701815079950056200,4.07805615234375,0.19412238895893097,1.0233078002929688,0.13355618715286255
1701815079960008200,4.08800830078125,0.21253083646297455,1.0065162181854248,0.12217380851507187
1701815079969961000,4.0979609375,0.23384864628314972,0.9429531693458557,0.07508459687232971
1701815079979914000,4.1079140625,0.25317007303237915,0.8273262977600098,0.026205677539110184
1701815079989866000,4.117865966796875,0.2548755705356598,0.6879398822784424,-0.006126430816948414
1701815079999819000,4.127819091796875,0.25587332248687744,0.5634832978248596,-0.051150012761354446
1701815080009771000,4.13777099609375,0.25363972783088684,0.4518561065196991,-0.11016672849655151
1701815080019724000,4.14772412109375,0.2582375109195709,0.3539576828479767,-0.1655217558145523
1701815080029676000,4.157676025390625,0.26814019680023193,0.2735113203525543,-0.20265154540538788
1701815080039629000,4.167629150390625,0.27626532316207886,0.17120639979839325,-0.23167644441127777
1701815080049581000,4.1775810546875,0.26822659373283386,0.0491795688867569,-0.2764609456062317
1701815080059534000,4.1875341796875,0.24541805684566498,-0.054158762097358704,-0.31955859065055847
1701815080069486000,4.197486083984375,0.2207808792591095,-0.14621517062187195,-0.3323923647403717
1701815080079439000,4.207439208984375,0.19566631317138672,-0.20482704043388367,-0.31167033314704895
1701815080089391000,4.21739111328125,0.16443301737308502,-0.2155872881412506,-0.27409979701042175
1701815080099344100,4.22734423828125,0.12934862077236176,-0.20643794536590576,-0.2099270224571228
1701815080109296000,4.237296142578125,0.10111404210329056,-0.19582366943359375,-0.12531331181526184
1701815080119249200,4.247249267578125,0.08572088927030563,-0.16638430953025818,-0.046608876436948776
1701815080129201000,4.257200927734375,0.08624686300754547,-0.12420783936977386,0.0008369360584765673
1701815080139154000,4.26715380859375,0.08626297861337662,-0.06039082258939743,0.009920910932123661
1701815080149107000,4.27710693359375,0.08567894250154495,0.011280701495707035,-0.002092608716338873
1701815080159059000,4.287058837890625,0.08919131010770798,0.060518909245729446,-0.014674510806798935
1701815080169012000,4.297011962890625,0.09004778414964676,0.07094545662403107,-0.050835177302360535
1701815080178964200,4.306964111328125,0.0833963006734848,0.04291234910488129,-0.10151542723178864
1701815080188917200,4.316917236328125,0.07063497602939606,-0.004819484427571297,-0.14547009766101837
1701815080198869000,4.326868896484375,0.07414909452199936,-0.019438862800598145,-0.1696774959564209
1701815080208822000,4.336822021484375,0.08626754581928253,-0.03390142321586609,-0.16502974927425385
1701815080218774000,4.34677392578125,0.09308931976556778,-0.034129880368709564,-0.15151451528072357
1701815080228727000,4.35672705078125,0.11270483583211899,-0.03320842608809471,-0.14781299233436584
1701815080238679000,4.366678955078125,0.13435900211334229,-0.062343671917915344,-0.14433245360851288
1701815080248632000,4.376632080078125,0.14590461552143097,-0.12601612508296967,-0.14418545365333557
1701815080258584000,4.386583984375,0.1495288461446762,-0.17598915100097656,-0.1577170342206955
1701815080268537000,4.396537109375,0.14637219905853271,-0.2111673802137375,-0.17162352800369263
1701815080278489000,4.406489013671875,0.14483949542045593,-0.19926269352436066,-0.1857454925775528
1701815080288442000,4.416442138671875,0.1458461582660675,-0.13468822836875916,-0.19684714078903198
1701815080298393900,4.426393798828125,0.15709732472896576,-0.08254441618919373,-0.18563984334468842
1701815080308347000,4.436346923828125,0.16659602522850037,-0.04938060790300369,-0.14389799535274506
1701815080318299100,4.446299072265625,0.15834778547286987,-0.022652676329016685,-0.07997802644968033
1701815080328252200,4.456252197265625,0.16746778786182404,-0.014943357557058334,-0.016848325729370117
1701815080338205200,4.466205078125,0.2116151750087738,-0.006767631508409977,0.025207411497831345
1701815080348157000,4.476156982421875,0.30221110582351685,-0.017033318057656288,0.047887157648801804
1701815080358110000,4.48610986328125,0.43500110507011414,-0.03290242701768875,0.05562477558851242
1701815080368062000,4.49606201171875,0.6085720658302307,-0.007951539009809494,0.04843956604599953
1701815080378015000,4.506014892578125,0.8043356537818909,0.08283863961696625,0.02863996848464012
1701815080387967200,4.51596728515625,0.9955481886863708,0.17053279280662537,0.00430506793782115
1701815080397920300,4.525920166015625,1.1916207075119019,0.2518816888332367,-0.025300560519099236
1701815080407872000,4.5358720703125,1.3632252216339111,0.3079302906990051,-0.053215816617012024
1701815080417825000,4.545824951171875,1.4949551820755005,0.3561634421348572,-0.06153715401887894
1701815080427777000,4.555777099609375,1.5765548944473267,0.3822863698005676,-0.0660293772816658
1701815080437730000,4.56572998046875,1.5310989618301392,0.30225446820259094,-0.048291224986314774
1701815080447682000,4.57568212890625,1.342658519744873,0.1739409863948822,-0.01721719652414322
1701815080457635000,4.585635009765625,0.9899781942367554,0.0507052056491375,0.02157425507903099
1701815080467587000,4.595587158203125,0.502687394618988,-0.13125447928905487,0.04836645722389221
1701815080477540000,4.6055400390625,0.06083379313349724,-0.32153892517089844,-0.05935361236333847
1701815080487493000,4.6154931640625,-0.27874746918678284,-0.5009981989860535,-0.3108585476875305
1701815080497445000,4.625445068359375,-0.5322080254554749,-0.71782386302948,-0.5246960520744324
1701815080507398100,4.635398193359375,-0.6674172878265381,-0.9363253116607666,-0.6575750112533569
1701815080517350000,4.645349853515625,-0.6491908431053162,-1.0647146701812744,-0.7369443774223328
1701815080527303000,4.655302978515625,-0.5646522641181946,-1.0213747024536133,-0.7303504347801208
1701815080537255200,4.665255126953125,-0.4675474762916565,-0.8545543551445007,-0.6342930793762207
1701815080547208200,4.675208251953125,-0.3420119285583496,-0.5969041585922241,-0.48726049065589905
1701815080557160200,4.68516015625,-0.1968441754579544,-0.2793388068675995,-0.30481258034706116
1701815080567113200,4.69511328125,-0.03650456666946411,0.03664979338645935,-0.0921032503247261
1701815080577065000,4.70506494140625,0.1195438802242279,0.30941808223724365,0.11423511058092117
1701815080587018000,4.71501806640625,0.24867336452007294,0.5034615397453308,0.26114600896835327
1701815080596970000,4.724969970703125,0.3448842167854309,0.6267539262771606,0.34183716773986816
1701815080606923000,4.734923095703125,0.42582061886787415,0.6687647700309753,0.3579697906970978
1701815080616875000,4.744875,0.4830101728439331,0.6346428394317627,0.3283715546131134
1701815080626828000,4.754828125,0.4763205647468567,0.518363893032074,0.28131189942359924
1701815080636780000,4.764780029296875,0.3970218598842621,0.37360623478889465,0.2363242506980896
1701815080646733000,4.774733154296875,0.2748589515686035,0.22001269459724426,0.19569078087806702
1701815080656685000,4.78468505859375,0.15414448082447052,0.10649345815181732,0.1311027705669403
1701815080666638000,4.79463818359375,0.08891449868679047,0.01575019583106041,0.04908169433474541
1701815080676591000,4.804591064453125,0.06530158221721649,-0.04122946783900261,-0.016584934666752815
1701815080686543000,4.814543212890625,0.13050000369548798,-0.0537995882332325,-0.035079557448625565
1701815080696496000,4.82449609375,0.26583731174468994,-0.06001380831003189,0.023834094405174255
1701815080706448100,4.8344482421875,0.31374290585517883,-0.03373635187745094,0.12732908129692078
1701815080716401700,4.844401611328125,0.29530903697013855,0.026905689388513565,0.1996314972639084
1701815080726353700,4.854353759765625,0.29056471586227417,0.09891121089458466,0.2175324261188507
1701815080736306700,4.864306640625,0.31739526987075806,0.13644500076770782,0.20398466289043427
1701815080746258700,4.8742587890625,0.34982743859291077,0.10637122392654419,0.17596404254436493
1701815080756211700,4.884211669921875,0.3837129771709442,0.07929246872663498,0.11993777751922607
1701815080766163700,4.894163818359375,0.41803646087646484,0.04897312819957733,0.0505046546459198
1701815080776116700,4.90411669921875,0.4449287950992584,0.03994368389248848,-0.018576141446828842
1701815080786068700,4.91406884765625,0.4593518376350403,0.02140279859304428,-0.06812716275453568
1701815080796021800,4.924021728515625,0.4490073025226593,-0.008947916328907013,-0.09420856088399887
1701815080805973800,4.933973876953125,0.419694721698761,0.0023111742921173573,-0.09476981312036514
1701815080815926800,4.9439267578125,0.4242018759250641,0.038444679230451584,-0.0686628445982933
1701815080825879600,4.953879638671875,0.4544866681098938,0.0937931090593338,-0.020729463547468185
1701815080835831600,4.96383154296875,0.4829465448856354,0.1566178798675537,0.03111402690410614
1701815080845784600,4.97378466796875,0.49454885721206665,0.19415628910064697,0.06520865857601166
1701815080855736800,4.98373681640625,0.48598146438598633,0.22328780591487885,0.06989075988531113
1701815080865689900,4.99368994140625,0.4603714942932129,0.2514631748199463,0.04723101109266281
1701815080875641600,5.0036416015625,0.4247503876686096,0.2638700604438782,0.007301439996808767
1701815080885594600,5.0135947265625,0.38531070947647095,0.25149548053741455,-0.032725438475608826
1701815080895546600,5.023546630859375,0.34255552291870117,0.2276732325553894,-0.08957860618829727
1701815080905499600,5.033499755859375,0.3049077093601227,0.18196429312229156,-0.16576972603797913
1701815080915451600,5.04345166015625,0.2718040645122528,0.1394442617893219,-0.2609042227268219
1701815080925404700,5.05340478515625,0.24337615072727203,0.11557914316654205,-0.346263587474823
1701815080935356700,5.063356689453125,0.22480273246765137,0.12804965674877167,-0.4079762399196625
1701815080945309700,5.073309814453125,0.23176796734333038,0.1740078330039978,-0.454718679189682
1701815080955261700,5.08326171875,0.2711332142353058,0.20014116168022156,-0.46844300627708435
1701815080965214700,5.093214599609375,0.3430197536945343,0.20277294516563416,-0.4325854480266571
1701815080975167700,5.103167724609375,0.4155610501766205,0.19798004627227783,-0.35653382539749146
1701815080985119500,5.113119384765625,0.4764446020126343,0.22178293764591217,-0.270062118768692
1701815080995071700,5.12307177734375,0.519503653049469,0.2713470458984375,-0.1871350109577179
1701815081005023700,5.133023681640625,0.5389050245285034,0.33016669750213623,-0.13141022622585297
1701815081014976800,5.142976806640625,0.5364885926246643,0.3720897138118744,-0.09669000655412674
1701815081024928500,5.152928466796875,0.5247216820716858,0.3901001214981079,-0.06124519184231758
1701815081034881500,5.162881591796875,0.49825718998908997,0.41418302059173584,-0.029402678832411766
1701815081044833500,5.17283349609375,0.44890668988227844,0.44104260206222534,-0.02225395478308201
1701815081054786600,5.18278662109375,0.4039323329925537,0.4660482406616211,-0.045972004532814026
1701815081064738800,5.19273876953125,0.406112939119339,0.4863013029098511,-0.11740996688604355
1701815081074691800,5.20269189453125,0.48131099343299866,0.5141685009002686,-0.26058313250541687
1701815081084644600,5.21264453125,0.6394864916801453,0.5448694229125977,-0.45463091135025024
1701815081094596600,5.2225966796875,0.8476637005805969,0.5879691243171692,-0.6684744954109192
1701815081104549600,5.232549560546875,1.0564574003219604,0.6101870536804199,-0.8385210633277893
1701815081114501600,5.242501708984375,1.2110610008239746,0.5723333954811096,-0.9338967800140381
1701815081124454700,5.25245458984375,1.269145131111145,0.5210302472114563,-0.9280476570129395
1701815081134406700,5.26240673828125,1.2217576503753662,0.46681660413742065,-0.8048149943351746
1701815081144359700,5.272359619140625,1.091148018836975,0.405381977558136,-0.5697068572044373
1701815081154311700,5.282311767578125,0.9285363554954529,0.3299003541469574,-0.2578883767127991
1701815081164264700,5.2922646484375,0.7800976634025574,0.24023784697055817,0.09300945699214935
1701815081174216700,5.302216796875,0.6539953351020813,0.16062438488006592,0.4241321384906769
1701815081184169700,5.312169677734375,0.5500273704528809,0.06979487836360931,0.6777181029319763
1701815081194121500,5.32212158203125,0.461539626121521,-0.009315522387623787,0.8177136778831482
1701815081204074500,5.332074462890625,0.4082697331905365,-0.11083947867155075,0.841646671295166
1701815081214027500,5.342027587890625,0.41206327080726624,-0.23197172582149506,0.7723971009254456
1701815081223979800,5.351979736328125,0.4489315450191498,-0.2976391613483429,0.6214616298675537
1701815081233932800,5.361932861328125,0.5147712826728821,-0.3306295871734619,0.4358890652656555
1701815081243884500,5.371884521484375,0.5899096727371216,-0.32738879323005676,0.2654550075531006
1701815081253837600,5.381837646484375,0.6433441638946533,-0.3033287227153778,0.17156656086444855
1701815081263789600,5.39178955078125,0.6566514372825623,-0.32762473821640015,0.1857183277606964
1701815081273742600,5.40174267578125,0.6238800287246704,-0.3629396855831146,0.2764057517051697
1701815081283694800,5.41169482421875,0.573335587978363,-0.364965558052063,0.3917512893676758
1701815081293648000,5.42164794921875,0.5334062576293945,-0.33112475275993347,0.49969202280044556
1701815081303599600,5.431599609375,0.5032006502151489,-0.27989673614501953,0.590656042098999
1701815081313552600,5.441552734375,0.4768795967102051,-0.22072741389274597,0.6514716744422913
1701815081323505700,5.451505615234375,0.4599544107913971,-0.18326951563358307,0.6844266653060913
1701815081333457700,5.461457763671875,0.45270824432373047,-0.1531602144241333,0.6940180659294128
1701815081343410700,5.47141064453125,0.4607235789299011,-0.14210064709186554,0.6842237114906311
1701815081353362700,5.48136279296875,0.4678271412849426,-0.12504757940769196,0.647007405757904
1701815081363315500,5.4913154296875,0.47296249866485596,-0.08053230494260788,0.5750248432159424
1701815081373267700,5.501267822265625,0.4704723656177521,0.02424878627061844,0.480488121509552
1701815081383220700,5.511220703125,0.44284018874168396,0.12371385842561722,0.39769843220710754
1701815081393172700,5.5211728515625,0.3709736466407776,0.21525070071220398,0.36815395951271057
1701815081403125800,5.531125732421875,0.27155038714408875,0.26869529485702515,0.42379218339920044
1701815081413077500,5.541077392578125,0.15599744021892548,0.2994958758354187,0.5438239574432373
1701815081423030500,5.551030517578125,0.0502217561006546,0.3422987461090088,0.6850122213363647
1701815081432982800,5.560982666015625,-0.014366976916790009,0.3675765097141266,0.8002368211746216
1701815081442935800,5.570935791015625,-0.030908403918147087,0.3785838782787323,0.8524912595748901
1701815081452888800,5.580888916015625,0.004159748554229736,0.4103308618068695,0.8258072137832642
1701815081462840600,5.590840576171875,0.06858055293560028,0.4776712656021118,0.7453938722610474
1701815081472793600,5.600793701171875,0.1562974452972412,0.555945873260498,0.6520394086837769
1701815081482745600,5.61074560546875,0.2562732994556427,0.6089062690734863,0.5727656483650208
1701815081492698600,5.62069873046875,0.36758899688720703,0.6141049861907959,0.5216764211654663
1701815081502650600,5.630650634765625,0.4920438528060913,0.5788295269012451,0.5015794038772583
1701815081512603600,5.640603759765625,0.621504008769989,0.5031884908676147,0.5131494998931885
1701815081522555600,5.6505556640625,0.7368202209472656,0.39279863238334656,0.5402546525001526
1701815081532508700,5.6605087890625,0.8298380374908447,0.22191894054412842,0.5666284561157227
1701815081542460700,5.670460693359375,0.8873983025550842,0.0009101280011236668,0.5628345608711243
1701815081552413700,5.68041357421875,0.8962544202804565,-0.23387402296066284,0.5104597210884094
1701815081562366700,5.69036669921875,0.8652669787406921,-0.4558221399784088,0.41516539454460144
1701815081572318500,5.700318359375,0.8119272589683533,-0.6496491432189941,0.30957382917404175
1701815081582271500,5.710271484375,0.7520860433578491,-0.7603839039802551,0.22409167885780334
1701815081592223700,5.7202236328125,0.6909291744232178,-0.7794224619865417,0.16275067627429962
1701815081602176800,5.7301767578125,0.6218379735946655,-0.7585739493370056,0.1318926215171814
1701815081612128800,5.740128662109375,0.5425685048103333,-0.7202354669570923,0.11341336369514465
1701815081622081800,5.750081787109375,0.47424134612083435,-0.6582652926445007,0.08994399011135101
1701815081632033500,5.760033447265625,0.4324406087398529,-0.5750042200088501,0.05086203292012215
1701815081641986600,5.769986572265625,0.4117528796195984,-0.4603322446346283,-0.011473247781395912
1701815081651938600,5.7799384765625,0.3922426998615265,-0.33210232853889465,-0.12638036906719208
1701815081661891600,5.7898916015625,0.37560591101646423,-0.20154458284378052,-0.2911655902862549
1701815081671843800,5.79984375,0.36627838015556335,-0.07126326858997345,-0.4989181458950043
1701815081681796900,5.809796875,0.3730393648147583,0.09333819150924683,-0.7396106123924255
1701815081691749600,5.81974951171875,0.41589170694351196,0.30399173498153687,-0.990947425365448
1701815081701701600,5.82970166015625,0.4842417240142822,0.5407677888870239,-1.1900211572647095
1701815081711654700,5.839654541015625,0.5452741384506226,0.7705714702606201,-1.2917214632034302
1701815081721606400,5.8496064453125,0.5775830745697021,0.9427797198295593,-1.2816165685653687
1701815081731559400,5.859559326171875,0.575053334236145,1.0298044681549072,-1.1810896396636963
1701815081741511700,5.86951171875,0.5339328050613403,1.0494698286056519,-1.03481924533844
1701815081751464700,5.879464599609375,0.4412025213241577,0.9658486247062683,-0.8930964469909668
1701815081761416400,5.88941650390625,0.29790791869163513,0.8337675333023071,-0.7826999425888062
1701815081771369500,5.899369384765625,0.12758636474609375,0.7216217517852783,-0.7289902567863464
1701815081781321500,5.909321533203125,-0.07684719562530518,0.6435194611549377,-0.7186625003814697
1701815081791274500,5.9192744140625,-0.28111210465431213,0.5685544013977051,-0.7186134457588196
1701815081801226500,5.9292265625,-0.4519043564796448,0.46975159645080566,-0.6917514801025391
1701815081811179500,5.939179443359375,-0.5801030993461609,0.33294156193733215,-0.6185994744300842
1701815081821131500,5.949131591796875,-0.6512952446937561,0.19470378756523132,-0.49207988381385803
1701815081831084500,5.95908447265625,-0.6719279289245605,0.0414220467209816,-0.3543763756752014
1701815081841037600,5.96903759765625,-0.6555654406547546,-0.08249670267105103,-0.2236066460609436
1701815081850989600,5.978989501953125,-0.6220527291297913,-0.17793521285057068,-0.11217100918292999
1701815081860942600,5.988942626953125,-0.5778570771217346,-0.23076726496219635,-0.026367155835032463
1701815081870894300,5.998894287109375,-0.5192105174064636,-0.23037537932395935,0.03955643251538277
1701815081880847400,6.008847412109375,-0.44291675090789795,-0.15593257546424866,0.0895647332072258
1701815081890799600,6.018799560546875,-0.35871875286102295,-0.03259057551622391,0.12756747007369995
1701815081900752600,6.028752685546875,-0.27424007654190063,0.11037323623895645,0.15534770488739014
1701815081910704600,6.03870458984375,-0.20547033846378326,0.2004459649324417,0.193857342004776
1701815081920657700,6.04865771484375,-0.1612834334373474,0.19541817903518677,0.242499440908432
1701815081930609400,6.058609375,-0.14280033111572266,0.10866411030292511,0.28074023127555847
1701815081940562400,6.0685625,-0.15504129230976105,-0.01650126278400421,0.2866133153438568
1701815081950514400,6.078514404296875,-0.19186580181121826,-0.12842202186584473,0.2550884783267975
1701815081960467500,6.088467529296875,-0.23634804785251617,-0.2180081009864807,0.19970829784870148
1701815081970420500,6.09842041015625,-0.2736439108848572,-0.2770857512950897,0.14374861121177673
1701815081980372500,6.10837255859375,-0.2889392673969269,-0.2987596392631531,0.10594690591096878
1701815081990325500,6.118325439453125,-0.28261256217956543,-0.2773207724094391,0.09589138627052307
1701815082000277500,6.128277587890625,-0.25760841369628906,-0.21738474071025848,0.10915419459342957
1701815082010230500,6.13823046875,-0.20856966078281403,-0.14301441609859467,0.1348399668931961
1701815082020182500,6.1481826171875,-0.15376101434230804,-0.07376184314489365,0.1692858338356018
1701815082030135600,6.158135498046875,-0.09740732610225677,-0.020579004660248756,0.1917712241411209
1701815082040087600,6.168087646484375,-0.05233678221702576,0.0032424372620880604,0.18789605796337128
1701815082050040600,6.17804052734375,-0.019132226705551147,-0.008163615129888058,0.16428127884864807
1701815082059992600,6.18799267578125,0.0059342454187572,-0.03511826694011688,0.1338626593351364
1701815082069945600,6.197945556640625,0.02159114181995392,-0.06389496475458145,0.10921073704957962
1701815082079897600,6.207897705078125,0.03246882185339928,-0.08974546939134598,0.10094375163316727
1701815082089850600,6.2178505859375,0.03482022136449814,-0.1178717315196991,0.10330980271100998
1701815082099803400,6.227803466796875,0.028375372290611267,-0.14289027452468872,0.11764213442802429
1701815082109755400,6.23775537109375,0.01640198566019535,-0.17228110134601593,0.131972536444664
1701815082119708400,6.24770849609375,0.004555979743599892,-0.20863884687423706,0.13758115470409393
1701815082129660700,6.25766064453125,0.0011189603246748447,-0.24953722953796387,0.12847621738910675
1701815082139613700,6.26761376953125,0.002696617040783167,-0.27932706475257874,0.11305252462625504
1701815082149565400,6.2775654296875,0.014742101542651653,-0.28365564346313477,0.08954814076423645
1701815082159518500,6.2875185546875,0.03564205765724182,-0.2657216489315033,0.06298524141311646
1701815082169470500,6.297470458984375,0.058905575424432755,-0.22567637264728546,0.03276224434375763
1701815082179423500,6.307423583984375,0.0744381994009018,-0.17108289897441864,-0.0036428989842534065
1701815082189375700,6.317375732421875,0.07803694158792496,-0.11168321222066879,-0.0427447184920311
1701815082199328800,6.327328857421875,0.07482782751321793,-0.050628650933504105,-0.08572867512702942
1701815082209280500,6.337280517578125,0.07297354191541672,-0.0003736913204193115,-0.11563419550657272
1701815082219233500,6.347233642578125,0.07187525182962418,0.03295816481113434,-0.13048851490020752
1701815082229185500,6.357185546875,0.07277803868055344,0.05295424535870552,-0.13078740239143372
1701815082239138600,6.367138671875,0.07606517523527145,0.05181095004081726,-0.12403734773397446
1701815082249091600,6.377091552734375,0.07951825112104416,0.04558341205120087,-0.11498575657606125
1701815082259043300,6.387043212890625,0.07410617172718048,0.03365032374858856,-0.11008261144161224
1701815082268996400,6.396996337890625,0.06519453972578049,0.019517770037055016,-0.1084330603480339
1701815082278948600,6.406948486328125,0.04981238767504692,0.009084302932024002,-0.11477431654930115
1701815082288901600,6.416901611328125,0.035674531012773514,-0.0013118346687406301,-0.12379452586174011
1701815082298853600,6.426853515625,0.013385205529630184,-0.017089731991291046,-0.13652177155017853
1701815082308806700,6.436806640625,-0.004572703968733549,-0.03201368823647499,-0.1424340009689331
1701815082318758400,6.44675830078125,-0.01037013903260231,-0.043166209012269974,-0.1366645097732544
1701815082328711400,6.45671142578125,-0.01753610000014305,-0.056062787771224976,-0.11886484175920486
1701815082338663700,6.46666357421875,-0.025093618780374527,-0.07137489318847656,-0.10368136316537857
1701815082348616700,6.47661669921875,-0.04118727892637253,-0.08870617300271988,-0.09332970529794693
1701815082358568400,6.486568359375,-0.05647462233901024,-0.11802464723587036,-0.09654121100902557
1701815082368521500,6.496521484375,-0.07576701790094376,-0.15349431335926056,-0.10566673427820206
1701815082378473500,6.506473388671875,-0.08453600108623505,-0.18431800603866577,-0.12026165425777435
1701815082388426500,6.516426513671875,-0.08585549145936966,-0.21576012670993805,-0.12873512506484985
1701815082398379500,6.526379638671875,-0.08353960514068604,-0.23045837879180908,-0.13018681108951569
1701815082408331500,6.53633154296875,-0.07632321119308472,-0.23339252173900604,-0.12284962832927704
1701815082418284500,6.546284423828125,-0.06274375319480896,-0.23057009279727936,-0.1089726909995079
1701815082428236500,6.556236572265625,-0.04734406992793083,-0.2280101776123047,-0.09578737616539001
1701815082438189600,6.566189453125,-0.03945392370223999,-0.22756756842136383,-0.08107820153236389
1701815082448141600,6.5761416015625,-0.036767300218343735,-0.23006808757781982,-0.06053807586431503
1701815082458094600,6.586094482421875,-0.034372054040431976,-0.23410330712795258,-0.0460323728621006
1701815082468046600,6.596046630859375,-0.028433488681912422,-0.23522508144378662,-0.03351745009422302
1701815082477999400,6.605999267578125,-0.02343633398413658,-0.25209885835647583,-0.02448907122015953
1701815082487951600,6.61595166015625,-0.02167518436908722,-0.2736707329750061,-0.026566602289676666
1701815082497904600,6.625904541015625,-0.025219852104783058,-0.2869306206703186,-0.04047149792313576
1701815082507856600,6.635856689453125,-0.028381463140249252,-0.30241990089416504,-0.06555037945508957
1701815082517809700,6.6458095703125,-0.03560901805758476,-0.3180777132511139,-0.09001071751117706
1701815082527761400,6.655761474609375,-0.037262625992298126,-0.32491517066955566,-0.11164020001888275
1701815082537714400,6.66571435546875,-0.04130823537707329,-0.3125820755958557,-0.1180586889386177
1701815082547667500,6.67566748046875,-0.04925064370036125,-0.2865203619003296,-0.11726100742816925
1701815082557619500,6.685619384765625,-0.0696568489074707,-0.2620411217212677,-0.11249607801437378
1701815082567572500,6.695572509765625,-0.09678655862808228,-0.24325016140937805,-0.09907636791467667
1701815082577524700,6.705524658203125,-0.11751580238342285,-0.22397659718990326,-0.07764697074890137
1701815082587477500,6.7154775390625,-0.1289164423942566,-0.21280500292778015,-0.0482671819627285
1701815082597429500,6.725429443359375,-0.1342180073261261,-0.20648957788944244,-0.026340842247009277
1701815082607382500,6.735382568359375,-0.13532760739326477,-0.19040749967098236,-0.013085915707051754
1701815082617334500,6.74533447265625,-0.1311192810535431,-0.17546795308589935,-0.015309655107557774
1701815082627287600,6.75528759765625,-0.11616485565900803,-0.15230219066143036,-0.023203080520033836
1701815082637239600,6.765239501953125,-0.09220919013023376,-0.12510919570922852,-0.038838498294353485
1701815082647192600,6.775192626953125,-0.07107725739479065,-0.11076553165912628,-0.05571240186691284
1701815082657144600,6.78514453125,-0.05750739201903343,-0.10236352682113647,-0.07735351473093033
1701815082667097600,6.79509765625,-0.04965336620807648,-0.10597512871026993,-0.09940998256206512
1701815082677049600,6.805049560546875,-0.04833270609378815,-0.10182911902666092,-0.11739829927682877
1701815082687002600,6.815002685546875,-0.047095950692892075,-0.09162627905607224,-0.12496224790811539
1701815082696955400,6.824955322265625,-0.04634600132703781,-0.08563762903213501,-0.12967178225517273
1701815082706907400,6.834907470703125,-0.044676993042230606,-0.07337231189012527,-0.12883245944976807
1701815082716860700,6.844860595703125,-0.04174299165606499,-0.05394960939884186,-0.12396927177906036
1701815082726813000,6.85481298828125,-0.04293862730264664,-0.0323193296790123,-0.10701873153448105
1701815082736766000,6.864765869140625,-0.04037586599588394,-0.015315579250454903,-0.08492061495780945
1701815082746718000,6.874718017578125,-0.0375484898686409,-0.0005088918842375278,-0.06393928825855255
1701815082756671000,6.8846708984375,-0.0334022156894207,0.01083750557154417,-0.0593048594892025
1701815082766622700,6.894622802734375,-0.02562268264591694,0.02041645161807537,-0.07935590296983719
1701815082776575700,6.90457568359375,-0.016571130603551865,0.028617922216653824,-0.1135287880897522
1701815082786528000,6.914528076171875,-0.006404066924005747,0.04080157354474068,-0.15444821119308472
1701815082796480800,6.924480712890625,0.008606573566794395,0.05256688594818115,-0.18863147497177124
1701815082806432800,6.934432861328125,0.026829952374100685,0.06399473547935486,-0.21394188702106476
1701815082816385800,6.9443857421875,0.04513385891914368,0.08532185852527618,-0.22320330142974854
1701815082826337800,6.954337890625,0.06342262029647827,0.11021828651428223,-0.21351921558380127
1701815082836290800,6.964290771484375,0.07471629232168198,0.13375423848628998,-0.18544843792915344
1701815082846242800,6.974242919921875,0.07475364953279495,0.1471506506204605,-0.15608307719230652
1701815082856195800,6.98419580078125,0.06963185220956802,0.1486809104681015,-0.14141279458999634
1701815082866148900,6.99414892578125,0.06438931077718735,0.14086687564849854,-0.1336723417043686
1701815082876100900,7.004100830078125,0.05625495687127113,0.12585756182670593,-0.12992554903030396
1701815082886054000,7.014053955078125,0.04123472794890404,0.0976477712392807,-0.13539035618305206
1701815082896006000,7.024005859375,0.020166723057627678,0.06549009680747986,-0.14129644632339478
1701815082905959000,7.033958984375,0.0030215305741876364,0.037555404007434845,-0.1461741030216217
1701815082915910700,7.04391064453125,-0.017904523760080338,0.02645268477499485,-0.14418712258338928
1701815082925863700,7.05386376953125,-0.039819762110710144,0.02423742413520813,-0.13433176279067993
1701815082935816000,7.06381591796875,-0.0699816569685936,0.026384463533759117,-0.1230226531624794
1701815082945769000,7.07376904296875,-0.09855150431394577,0.04545881971716881,-0.10792995244264603
1701815082955721000,7.083720947265625,-0.12373675405979156,0.06620245426893234,-0.09317364543676376
1701815082965674000,7.093674072265625,-0.15006621181964874,0.10111178457736969,-0.0754280686378479
1701815082975625700,7.103625732421875,-0.17227564752101898,0.1294800490140915,-0.05803203955292702
1701815082985578800,7.113578857421875,-0.18657414615154266,0.15705108642578125,-0.03887154906988144
1701815082995530800,7.12353076171875,-0.19494393467903137,0.17400316894054413,-0.019389724358916283
1701815083005483800,7.13348388671875,-0.19662266969680786,0.1796841323375702,-0.007843412458896637
1701815083015436000,7.14343603515625,-0.19513581693172455,0.16964587569236755,-0.013551898300647736
1701815083025389000,7.15338916015625,-0.19323264062404633,0.15100924670696259,-0.03215530514717102
1701815083035341800,7.163341796875,-0.18832843005657196,0.13732139766216278,-0.042364802211523056
1701815083045293800,7.1732939453125,-0.18215209245681763,0.1279108226299286,-0.039661020040512085
1701815083055246800,7.183246826171875,-0.17470456659793854,0.11699078977108002,-0.02574653923511505
1701815083065198800,7.19319873046875,-0.17182651162147522,0.11568744480609894,-0.008688853122293949
1701815083075152000,7.20315185546875,-0.17498289048671722,0.12007047981023788,0.007662689313292503
1701815083085103900,7.213103759765625,-0.17620374262332916,0.13177995383739471,0.02400147169828415
1701815083095057000,7.223056884765625,-0.16985130310058594,0.14723427593708038,0.03642245754599571
1701815083105009000,7.2330087890625,-0.16647839546203613,0.14851471781730652,0.04330144822597504
1701815083114962000,7.2429619140625,-0.16740119457244873,0.13683170080184937,0.046300966292619705
1701815083124914000,7.252913818359375,-0.1692868024110794,0.1189337968826294,0.048808734863996506
1701815083134867000,7.262866943359375,-0.16460922360420227,0.1032634899020195,0.04959996044635773
1701815083144818700,7.272818603515625,-0.15835916996002197,0.09035678952932358,0.04921869561076164
1701815083154771700,7.282771728515625,-0.15717379748821259,0.08184026926755905,0.04743171110749245
1701815083164724000,7.292723876953125,-0.1539095640182495,0.07371070235967636,0.051730815321207047
1701815083174677000,7.302677001953125,-0.15594902634620667,0.06023989990353584,0.06811751425266266
1701815083184628700,7.312628662109375,-0.1582496166229248,0.048149459064006805,0.08497051149606705
1701815083194581800,7.322581787109375,-0.16532671451568604,0.03594552353024483,0.09558188170194626
1701815083204534800,7.33253466796875,-0.17238427698612213,0.02734621986746788,0.09958691895008087
1701815083214486800,7.34248681640625,-0.18202517926692963,0.01976180449128151,0.09777463227510452
1701815083224439800,7.352439697265625,-0.18806739151477814,0.018992416560649872,0.09643929451704025
1701815083234391800,7.362391845703125,-0.18448224663734436,0.028202958405017853,0.0858103483915329
1701815083244344800,7.3723447265625,-0.18260079622268677,0.03423803672194481,0.06849734485149384
1701815083254296800,7.382296875,-0.17608563601970673,0.040463175624608994,0.054221995174884796
1701815083264249900,7.392249755859375,-0.16436225175857544,0.045843202620744705,0.0481976680457592
1701815083274201900,7.402201904296875,-0.14777502417564392,0.054215651005506516,0.055938947945833206
1701815083284155000,7.41215478515625,-0.12909908592700958,0.06625766307115555,0.07436078041791916
1701815083294106600,7.422106689453125,-0.1099722608923912,0.0761031061410904,0.09842617064714432
1701815083304059600,7.4320595703125,-0.08966130763292313,0.08284174650907516,0.12119881063699722
1701815083314012000,7.442011962890625,-0.06839063763618469,0.08754648268222809,0.1326323002576828
1701815083323965000,7.45196484375,-0.05021119862794876,0.08719556778669357,0.12877807021141052
1701815083333917000,7.4619169921875,-0.034891095012426376,0.07402703911066055,0.10763443261384964
1701815083343870000,7.471869873046875,-0.02558637037873268,0.05472772940993309,0.07707268744707108
1701815083353821700,7.48182177734375,-0.017705809324979782,0.03548665717244148,0.05141952261328697
1701815083363774700,7.491774658203125,-0.008952531963586807,0.0330144464969635,0.031448476016521454
1701815083373726700,7.501726806640625,-0.005135423969477415,0.0236225426197052,0.021124467253684998
1701815083383679700,7.5116796875,-0.005958519876003265,0.021728016436100006,0.007250945083796978
1701815083393632800,7.5216328125,-0.008644584566354752,0.01700703054666519,-0.0022805086337029934
1701815083403585000,7.5315849609375,-0.005028038285672665,0.016533784568309784,-0.009121984243392944
1701815083413537800,7.541537841796875,0.00008469843305647373,0.02054636925458908,-0.007427414879202843
1701815083423489800,7.55148974609375,0.006738966330885887,0.03086150251328945,-0.0022490634582936764
1701815083433442800,7.56144287109375,0.011620007455348969,0.03504692763090134,0.010236102156341076
1701815083443394800,7.571394775390625,0.01860034093260765,0.03460892662405968,0.023424813523888588
1701815083453347800,7.581347900390625,0.027482513338327408,0.04769410192966461,0.03378690406680107
1701815083463299800,7.5912998046875,0.034297917038202286,0.04479116573929787,0.035129282623529434
1701815083473252900,7.6012529296875,0.03716827183961868,0.037569206207990646,0.021944772452116013
1701815083483204900,7.611204833984375,0.03235961124300957,0.016697833314538002,0.004365596920251846
1701815083493158000,7.621157958984375,0.03080858290195465,-0.005390691105276346,-0.009870064444839954
1701815083503110000,7.63110986328125,0.03258506953716278,-0.015746435150504112,-0.023067716509103775
1701815083513063000,7.64106298828125,0.034462861716747284,-0.01880507543683052,-0.028162874281406403
1701815083523014700,7.6510146484375,0.03505336120724678,-0.0121306162327528,-0.024565840139985085
1701815083532967700,7.6609677734375,0.04022601619362831,0.0022898688912391663,-0.012791739776730537
1701815083542920000,7.670919921875,0.04819606617093086,0.02453884854912758,0.00009491946548223495
1701815083552873000,7.680873046875,0.050928469747304916,0.04781460762023926,0.009996285662055016
1701815083562826000,7.690825927734375,0.0516577810049057,0.06156952306628227,0.010446821339428425
1701815083572777700,7.70077783203125,0.05214647203683853,0.070979543030262,0.0016224372666329145
1701815083582730800,7.710730712890625,0.047840867191553116,0.08578027784824371,-0.010973958298563957
1701815083592682800,7.720682861328125,0.046273864805698395,0.0876985564827919,-0.020451882854104042
1701815083602635800,7.7306357421875,0.03997379168868065,0.09731492400169373,-0.026074334979057312
1701815083612588000,7.740588134765625,0.036272529512643814,0.08836083859205246,-0.027280479669570923
1701815083622541000,7.750541015625,0.04175884649157524,0.07231338322162628,-0.026479270309209824
1701815083632492800,7.760492919921875,0.04917468503117561,0.048793941736221313,-0.022344179451465607
1701815083642445800,7.77044580078125,0.05201566219329834,0.026643056422472,-0.02097313478589058
1701815083652397800,7.780397705078125,0.051677972078323364,0.00413668155670166,-0.014843867160379887
1701815083662350800,7.790350830078125,0.05451173707842827,-0.008053848519921303,-0.0005375114269554615
1701815083672302800,7.800302734375,0.05739034712314606,-0.013057928532361984,0.015412425622344017
1701815083682256000,7.810255859375,0.057518262416124344,-0.009655695408582687,0.02799394726753235
1701815083692207900,7.820207763671875,0.05778724327683449,-0.0048337760381400585,0.034104835242033005
1701815083702161000,7.830160888671875,0.060282573103904724,-0.003218082245439291,0.039313096553087234
1701815083712112000,7.840112060546875,0.06285012513399124,-0.004641275852918625,0.03827153518795967
1701815083722065200,7.850065185546875,0.061510100960731506,-0.00985277071595192,0.03145454451441765
1701815083732017200,7.86001708984375,0.05958943068981171,-0.005386382807046175,0.02568480558693409
1701815083741970200,7.86997021484375,0.054084863513708115,-0.006062870845198631,0.023325074464082718
1701815083751922200,7.879922119140625,0.05118441581726074,0.007179164793342352,0.024039868265390396
1701815083761875200,7.889875244140625,0.04846858233213425,0.00829068012535572,0.03137737885117531
1701815083771828200,7.899828125,0.04102611169219017,0.009216928854584694,0.03753700479865074
1701815083781780200,7.9097802734375,0.03289905562996864,0.0025492156855762005,0.03791680932044983
1701815083791733200,7.919733154296875,0.025044061243534088,-0.001588005106896162,0.03468266502022743
1701815083801685000,7.92968505859375,0.016674241051077843,-0.00483999028801918,0.034327805042266846
1701815083811638000,7.939637939453125,0.01707930862903595,-0.002152061555534601,0.03200792521238327
1701815083821590300,7.94959033203125,0.01609042100608349,0.0002869493328034878,0.03196001052856445
1701815083831543300,7.959543212890625,0.017800169065594673,0.005330976098775864,0.03511452674865723
1701815083841495300,7.969495361328125,0.019636860117316246,0.009040316566824913,0.036107782274484634
1701815083851448300,7.9794482421875,0.01996416412293911,0.006554787512868643,0.03692696988582611
1701815083861400000,7.989400146484375,0.020755212754011154,0.0026867236010730267,0.030782096087932587
1701815083871353000,7.99935302734375,0.021844979375600815,-0.0031597139313817024,0.021793393418192863
1701815083881305300,8.009305419921875,0.02371113747358322,-0.012010019272565842,0.01392141543328762
1701815083891258000,8.019258056640625,0.01930280774831772,-0.005865307524800301,0.007688819896429777
1701815083901210400,8.02921044921875,0.01586928218603134,-0.001626842189580202,0.005105502437800169
1701815083911163400,8.039163330078125,0.005722369998693466,-0.007085523568093777,0.0137914028018713
1701815083921115100,8.049115234375,-0.0023171687498688698,-0.004632220137864351,0.022335931658744812
1701815083931068200,8.059068115234375,-0.008462412282824516,-0.011449912562966347,0.03684909641742706
1701815083941020200,8.069020263671876,-0.011545810848474503,-0.013066718354821205,0.0516778901219368
1701815083950973200,8.07897314453125,-0.011100264266133308,-0.013886971399188042,0.06225543096661568
1701815083960926200,8.08892626953125,-0.011398665606975555,-0.017781754955649376,0.07138291746377945
1701815083970878200,8.098878173828124,-0.011900670826435089,-0.022608468309044838,0.07132565975189209
1701815083980831200,8.108831298828125,-0.011193659156560898,-0.031577374786138535,0.06548350304365158
1701815083990783200,8.118783203125,-0.008595212362706661,-0.04112533852458,0.05273522064089775
1701815084000736300,8.128736328125,-0.006154714617878199,-0.04308036342263222,0.041049446910619736
1701815084010688300,8.138688232421876,-0.002943475032225251,-0.04153013974428177,0.033350780606269836
1701815084020641300,8.148641357421875,-0.0002911339979618788,-0.0371132418513298,0.03929334878921509
1701815084030593300,8.15859326171875,0.005283927544951439,-0.02830483764410019,0.056733857840299606
1701815084040546300,8.16854638671875,0.006443846970796585,-0.024281423538923264,0.0764467716217041
1701815084050498300,8.178498291015625,0.0023894498590379953,-0.02203131839632988,0.09162625670433044
1701815084060451300,8.188451416015624,0.0002546403557062149,-0.022105352953076363,0.10074776411056519
1701815084070403000,8.198403076171875,-0.004744112957268953,-0.02088509127497673,0.11010903865098953
1701815084080356000,8.208356201171876,-0.007695046253502369,-0.024424124509096146,0.11544690281152725
1701815084090308000,8.21830810546875,-0.007846847176551819,-0.03456064686179161,0.11537526547908783
1701815084100261000,8.22826123046875,-0.004583160392940044,-0.050711385905742645,0.1096019595861435
1701815084110213400,8.23821337890625,-0.0005050620529800653,-0.06337258964776993,0.10402237623929977
1701815084120166400,8.24816650390625,0.0013580906670540571,-0.0645919144153595,0.09776543080806732
1701815084130118100,8.2581181640625,0.00412325095385313,-0.05848235636949539,0.0961931049823761
1701815084140071200,8.2680712890625,0.008762302808463573,-0.04562417417764664,0.09611278027296066
1701815084150024200,8.278024169921874,0.010432637296617031,-0.029778897762298584,0.0918586477637291
1701815084159976200,8.28797607421875,0.01447705365717411,-0.015020100399851799,0.08349422365427017
1701815084169929200,8.29792919921875,0.020146390423178673,-0.004343754146248102,0.07402855157852173
1701815084179881200,8.307881103515625,0.02302873693406582,0.00023488467559218407,0.06177336722612381
1701815084189834200,8.317834228515625,0.02610788494348526,0.007526886183768511,0.054827842861413956
1701815084199786200,8.3277861328125,0.02536841668188572,0.015929868444800377,0.05083853378891945
1701815084209739300,8.3377392578125,0.024327920749783516,0.03147687017917633,0.049664877355098724
1701815084219691300,8.347691162109374,0.02027776464819908,0.04361995309591293,0.05473054572939873
1701815084229644300,8.357644287109375,0.014229459688067436,0.052591077983379364,0.05672338977456093
1701815084239596000,8.367595947265626,0.005024188198149204,0.04981561750173569,0.0501033291220665
1701815084249549000,8.377549072265625,-0.0034132390283048153,0.04551088809967041,0.03971380367875099
1701815084259501300,8.387501220703125,-0.010222398675978184,0.03312399238348007,0.024016913026571274
1701815084269454300,8.397454345703125,-0.014466412365436554,0.01708883047103882,0.010758897289633751
1701815084279406300,8.40740625,-0.01523561216890812,0.0003532157279551029,-0.0011173691600561142
1701815084289359400,8.417359375,-0.011559917591512203,-0.013684839010238647,-0.009171567857265472
1701815084299311000,8.42731103515625,-0.007817592471837997,-0.03551166132092476,-0.00904674082994461
1701815084309264100,8.43726416015625,-0.00804742332547903,-0.052089571952819824,-0.009256066754460335
1701815084319216000,8.447216064453125,-0.012128869071602821,-0.05559864267706871,-0.011853788048028946
1701815084329169200,8.457169189453126,-0.016853315755724907,-0.056704651564359665,-0.007517630234360695
1701815084339121200,8.46712109375,-0.018725015223026276,-0.05678228288888931,-0.006665394175797701
1701815084349074200,8.47707421875,-0.02698507532477379,-0.057151395827531815,-0.010212725028395653
1701815084359027200,8.487027099609374,-0.0400533452630043,-0.053842246532440186,-0.014882607385516167
1701815084368979200,8.496979248046875,-0.05068521946668625,-0.049502890557050705,-0.012781906872987747
1701815084378932200,8.50693212890625,-0.052256833761930466,-0.041405193507671356,-0.0077890679240226746
1701815084388884200,8.51688427734375,-0.05360519140958786,-0.03203246369957924,-0.00009839097037911415
1701815084398837200,8.526837158203126,-0.052586209028959274,-0.024002190679311752,0.015122450888156891
1701815084408789200,8.536789306640625,-0.0504026859998703,-0.016302457079291344,0.03294911980628967
1701815084418742300,8.5467421875,-0.04388538748025894,-0.0037544420920312405,0.049441318958997726
1701815084428694300,8.5566943359375,-0.039086900651454926,0.010984024032950401,0.06394409388303757
1701815084438647300,8.566647216796875,-0.04037497565150261,0.005049479193985462,0.08798710256814957
1701815084448599000,8.57659912109375,-0.04357796162366867,-0.009267408400774002,0.10852833092212677
1701815084458552000,8.586552001953125,-0.041734226047992706,-0.032842110842466354,0.12757769227027893
1701815084468504000,8.596504150390626,-0.045042939484119415,-0.0464647114276886,0.14076568186283112
1701815084478457000,8.60645703125,-0.0504545196890831,-0.04755420982837677,0.1544034779071808
1701815084488409300,8.616409423828125,-0.05661334842443466,-0.04345587268471718,0.16679303348064423
1701815084498362400,8.6263623046875,-0.06038517877459526,-0.039839163422584534,0.17771561443805695
1701815084508314000,8.636314208984375,-0.05913828685879707,-0.03164168819785118,0.1813122183084488
1701815084518267100,8.64626708984375,-0.053288016468286514,-0.02590453065931797,0.17762042582035065
1701815084528219100,8.65621923828125,-0.04491344094276428,-0.02151803858578205,0.17913922667503357
1701815084538172200,8.666172119140626,-0.033964551985263824,-0.031163165345788002,0.18503177165985107
1701815084548124400,8.67612451171875,-0.027456585317850113,-0.04717782139778137,0.19578614830970764
1701815084558077200,8.6860771484375,-0.02615157514810562,-0.0529501736164093,0.20276184380054474
1701815084568030200,8.6960302734375,-0.024370186030864716,-0.05090353637933731,0.20502793788909912
1701815084577982200,8.705982177734375,-0.017276247963309288,-0.043231986463069916,0.20056918263435364
1701815084587935200,8.715935302734374,-0.01259654201567173,-0.03613865748047829,0.19143933057785034
1701815084597887200,8.72588720703125,-0.011304170824587345,-0.03137204423546791,0.1839151233434677
1701815084607840300,8.73584033203125,-0.009105997160077095,-0.03089054487645626,0.1778220683336258
1701815084617792300,8.745792236328125,-0.0063092587515711784,-0.03489718213677406,0.174761101603508
1701815084627745000,8.7557451171875,-0.007366799749433994,-0.04408854991197586,0.17499040067195892
1701815084637697300,8.765697265625,-0.012641784735023975,-0.04273291304707527,0.1703871637582779
1701815084647650300,8.775650390625,-0.013752056285738945,-0.032829150557518005,0.17297762632369995
1701815084657603300,8.785603271484375,-0.016140485182404518,-0.03139188513159752,0.18116948008537292
1701815084667556400,8.795556396484375,-0.021479938179254532,-0.03961377218365669,0.19394619762897491
1701815084677508000,8.805508056640624,-0.022282615303993225,-0.04382636025547981,0.188914954662323
1701815084687461000,8.815461181640625,-0.027830420061945915,-0.05123163387179375,0.17846348881721497
1701815084697413000,8.8254130859375,-0.03580419346690178,-0.05283033102750778,0.16393859684467316
1701815084707366100,8.8353662109375,-0.04622345417737961,-0.054891571402549744,0.15167175233364105
1701815084717318100,8.845318115234376,-0.0581648014485836,-0.05028536915779114,0.13820095360279083
1701815084727271200,8.855271240234375,-0.06494203954935074,-0.037212446331977844,0.12310740351676941
1701815084737223200,8.86522314453125,-0.07101058959960938,-0.02690201625227928,0.10550843924283981
1701815084747176200,8.87517626953125,-0.07984418421983719,-0.012598799541592598,0.09331928938627243
1701815084757128200,8.885128173828125,-0.08588237315416336,0.006553855258971453,0.08986836671829224
1701815084767081200,8.895081298828124,-0.0933426022529602,0.023620767518877983,0.08768314868211746
1701815084777033200,8.905033203125,-0.09651416540145874,0.043192870914936066,0.08305244892835617
1701815084786986200,8.914986328125,-0.09231462329626083,0.05835571140050888,0.08313995599746704
1701815084796938200,8.924938232421875,-0.08802399784326553,0.06670844554901123,0.09195715188980103
1701815084806891300,8.934891357421876,-0.07913533598184586,0.07136756181716919,0.1007496789097786
1701815084816843300,8.94484326171875,-0.06967099756002426,0.05838518589735031,0.11352778971195221
1701815084826796000,8.954796142578125,-0.06350551545619965,0.0355168841779232,0.1333313137292862
1701815084836748000,8.964748046875,-0.060957953333854675,0.004600915126502514,0.14879556000232697
1701815084846701000,8.974701171875,-0.060574986040592194,-0.02292831428349018,0.15706536173820496
1701815084856654000,8.984654052734374,-0.06305146217346191,-0.056221820414066315,0.15263494849205017
1701815084866606300,8.9946064453125,-0.06995104998350143,-0.08263993263244629,0.14244085550308228
1701815084876559400,9.004559326171876,-0.07202298939228058,-0.09471923112869263,0.12771092355251312
1701815084886511000,9.014510986328125,-0.07342082262039185,-0.09077145904302597,0.11240330338478088
1701815084896464100,9.024464111328125,-0.07488369941711426,-0.06620645523071289,0.099413201212883
1701815084906416000,9.034416015625,-0.0787382647395134,-0.03764947131276131,0.09609900414943695
1701815084916369200,9.044369140625,-0.07946876436471939,-0.00770142488181591,0.08984936028718948
1701815084926321200,9.054321044921876,-0.07554103434085846,0.013147708028554916,0.08753297477960587
1701815084936274200,9.064274169921875,-0.07053748518228531,0.015268117189407349,0.08885736763477325
1701815084946226200,9.07422607421875,-0.060124434530735016,0.013951495289802551,0.1008961871266365
1701815084956179200,9.08417919921875,-0.047427814453840256,0.008200664073228836,0.11154244095087051
1701815084966131200,9.094131103515625,-0.036003030836582184,0.004431003704667091,0.11954598128795624
1701815084976084200,9.104084228515624,-0.022410254925489426,-0.016303835436701775,0.12636421620845795
1701815084986036000,9.114035888671875,-0.008593644015491009,-0.05318106710910797,0.1265636682510376
1701815084995988200,9.12398828125,0.0038832651916891336,-0.09695518016815186,0.10862115025520325
1701815085005941200,9.133941162109375,0.019341491162776947,-0.13217779994010925,0.07710520178079605
1701815085015893200,9.143893310546876,0.030357657000422478,-0.1499703824520111,0.04689909517765045
1701815085025846300,9.15384619140625,0.03995943441987038,-0.14477227628231049,0.026980174705386162
1701815085035798000,9.163798095703125,0.04917610436677933,-0.1165531650185585,0.013408971950411797
1701815085045751000,9.1737509765625,0.06069677323102951,-0.07912718504667282,0.008483447134494781
1701815085055703000,9.183703125,0.06292477250099182,-0.0494968518614769,0.010392401367425919
1701815085065656000,9.193656005859374,0.07000423222780228,-0.026596330106258392,0.005960816517472267
1701815085075608300,9.2036083984375,0.07736467570066452,-0.017653699964284897,-0.0008126674219965935
1701815085085561300,9.213561279296876,0.07786867767572403,-0.027993246912956238,-0.007497983984649181
1701815085095513000,9.22351318359375,0.08119496703147888,-0.044771429151296616,-0.009858343750238419
1701815085105466000,9.233466064453125,0.07880792766809464,-0.0631730705499649,-0.01128171756863594
1701815085115418000,9.243418212890624,0.07657434046268463,-0.0692373514175415,-0.005714645143598318
1701815085125371100,9.25337109375,0.07643651217222214,-0.0664786770939827,0.005432784557342529
1701815085135323400,9.263323486328124,0.07429053634405136,-0.06586987525224686,0.0197515357285738
1701815085145276200,9.273276123046875,0.070505790412426,-0.06602025777101517,0.02361954003572464
1701815085155228200,9.283228271484376,0.06351366639137268,-0.06689164787530899,0.012984739616513252
1701815085165181200,9.29318115234375,0.062344200909137726,-0.0702468752861023,-0.005097342189401388
1701815085175133200,9.30313330078125,0.06745880097150803,-0.07756683975458145,-0.033261336386203766
1701815085185086200,9.313086181640625,0.07046099007129669,-0.09129024296998978,-0.05306817218661308
1701815085195039200,9.323039306640625,0.06499379128217697,-0.10376129299402237,-0.06574748456478119
1701815085204991000,9.332990966796874,0.05404234305024147,-0.11109857261180878,-0.06517618894577026
1701815085214944000,9.342944091796875,0.046436090022325516,-0.11012251675128937,-0.05921177193522453
1701815085224896300,9.352896240234376,0.03587113693356514,-0.09718683362007141,-0.04261574149131775
1701815085234849300,9.362849365234375,0.02179979346692562,-0.0814552754163742,-0.02750363200902939
1701815085244801300,9.37280126953125,0.004595952108502388,-0.06586730480194092,-0.015963304787874222
1701815085254754000,9.382754150390625,-0.004393282346427441,-0.045506373047828674,-0.008684087544679642
1701815085264706000,9.3927060546875,-0.009029308333992958,-0.032412007451057434,0.006503809243440628
1701815085274659000,9.4026591796875,-0.008258589543402195,-0.028546161949634552,0.022784244269132614
1701815085284611300,9.412611328125,-0.005662822164595127,-0.03658105432987213,0.03889244422316551
1701815085294564400,9.422564453125,-0.003836692776530981,-0.0607692152261734,0.04978850111365318
1701815085304516000,9.43251611328125,-0.0015832837671041489,-0.08577518910169601,0.0509512722492218
1701815085314469000,9.44246923828125,0.0017001277301460505,-0.10035733133554459,0.04767478257417679
1701815085324421000,9.452421142578125,0.0040196324698626995,-0.10462455451488495,0.03610757738351822
1701815085334374100,9.4623740234375,0.007197582628577948,-0.09685957431793213,0.028368428349494934
1701815085344326100,9.472326171875,0.0037743812426924706,-0.08171936869621277,0.02649833634495735
1701815085354279200,9.482279052734375,-0.004550926852971315,-0.06287617981433868,0.026214709505438805
1701815085364231200,9.492231201171874,-0.010202912613749504,-0.04143209010362625,0.030827080830931664
1701815085374184200,9.50218408203125,-0.009239647537469864,-0.02547416090965271,0.028741825371980667
1701815085384137200,9.51213720703125,-0.008395567536354065,-0.021205604076385498,0.014161891303956509
1701815085394089200,9.522089111328125,-0.0025477984454482794,-0.029385503381490707,-0.005441371351480484
1701815085404042200,9.532042236328126,0.0025359042920172215,-0.038754902780056,-0.02769383415579796
1701815085413994000,9.541993896484374,0.0068086800165474415,-0.045585114508867264,-0.054809875786304474
1701815085423947000,9.551947021484375,0.010812233202159405,-0.050799716264009476,-0.0813315138220787
1701815085433899300,9.561899169921874,0.010210624895989895,-0.05249455198645592,-0.09431256353855133
1701815085443852300,9.571852294921875,0.01100139133632183,-0.03532097861170769,-0.1002279669046402
1701815085453804300,9.58180419921875,0.008155537769198418,-0.010136529803276062,-0.08807329833507538
1701815085463757300,9.59175732421875,0.007898086681962013,0.007963156327605247,-0.06495129317045212
1701815085473709000,9.601708984375,0.01094314455986023,0.01633986458182335,-0.04432511329650879
1701815085483662000,9.611662109375,0.016171550378203392,0.011927583254873753,-0.03765740618109703
1701815085493614000,9.621614013671875,0.01657981239259243,-0.006783520802855492,-0.043109696358442307
1701815085503567000,9.631567138671874,0.010619401931762695,-0.02259683981537819,-0.04873797670006752
1701815085513519400,9.641519287109375,0.014853829517960548,-0.029627852141857147,-0.056651562452316284
1701815085523472100,9.65147216796875,0.017993325367569923,-0.028139054775238037,-0.06382626295089722
1701815085533424000,9.661424072265625,0.022140400484204292,-0.02900271862745285,-0.06725774705410004
1701815085543377200,9.671377197265626,0.025226809084415436,-0.03128713369369507,-0.06957106292247772
1701815085553329200,9.6813291015625,0.03030945174396038,-0.029333703219890594,-0.07456741482019424
1701815085563282200,9.6912822265625,0.033109698444604874,-0.024129800498485565,-0.07933289557695389
1701815085573235200,9.701235107421875,0.03443435579538345,-0.021760117262601852,-0.08122027665376663
1701815085583187200,9.711187255859375,0.03190780431032181,-0.02625420317053795,-0.0795755535364151
1701815085593140200,9.72114013671875,0.02667362615466118,-0.032248444855213165,-0.07109791785478592
1701815085603092200,9.73109228515625,0.022094719111919403,-0.03276146203279495,-0.06234115734696388
1701815085613045200,9.741045166015626,0.018123680725693703,-0.03112521395087242,-0.0447552353143692
1701815085622997200,9.750997314453125,0.01233472116291523,-0.02038375288248062,-0.031716201454401016
1701815085632950000,9.760949951171876,0.007308536674827337,-0.007400575093924999,-0.019488565623760223
1701815085642902000,9.770902099609375,0.002241959096863866,0.00844341330230236,-0.00733501510694623
1701815085652855000,9.78085498046875,-0.0010105594992637634,0.018202032893896103,0.002190313069149852
1701815085662807300,9.790807373046874,0.0008839333895593882,0.024532988667488098,0.0037521955091506243
1701815085672760300,9.80076025390625,0.0009987156372517347,0.033788539469242096,-0.0013917000032961369
1701815085682712000,9.810712158203126,0.005515188444405794,0.039348021149635315,-0.008758604526519775
1701815085692665000,9.8206650390625,0.011983741074800491,0.03528670221567154,-0.022950056940317154
1701815085702617000,9.8306171875,0.021126385778188705,0.025756709277629852,-0.043499868363142014
1701815085712570600,9.840570556640625,0.031345468014478683,0.013330932706594467,-0.05774485319852829
1701815085722522600,9.850522705078125,0.03754810243844986,0.00866956077516079,-0.059384413063526154
1701815085732475400,9.860475341796874,0.04300704970955849,0.008449049666523933,-0.04198598861694336
1701815085742427600,9.870427734375,0.047345370054244995,0.0033225971274077892,-0.026294667273759842
1701815085752380700,9.880380615234374,0.04809664934873581,0.003622735384851694,-0.016915015876293182
1701815085762332700,9.890332763671875,0.04298294335603714,0.0015337960794568062,-0.0173973198980093
1701815085772285700,9.90028564453125,0.032914333045482635,-0.0012571967672556639,-0.027760745957493782
1701815085782238500,9.910238525390625,0.01763249933719635,0.0034609478898346424,-0.039118118584156036
1701815085792190500,9.9201904296875,-0.000023993896320462227,0.011081583797931671,-0.049519360065460205
1701815085802143500,9.9301435546875,-0.017426956444978714,0.02890998125076294,-0.04547310993075371
1701815085812095700,9.940095703125,-0.030568325892090797,0.04846743866801262,-0.03626922518014908
1701815085822048800,9.950048828125,-0.03616008162498474,0.06637390702962875,-0.019855575636029243
1701815085832000500,9.96000048828125,-0.04152901470661163,0.07841192930936813,-0.006374919321388006
1701815085841953500,9.96995361328125,-0.04563269019126892,0.07990916073322296,0.0023841727524995804
1701815085851905500,9.979905517578125,-0.04515039175748825,0.07477005571126938,-0.002042267471551895
1701815085861858600,9.989858642578126,-0.0439179427921772,0.07678323239088058,-0.013980917632579803
1701815085871810600,9.999810546875,-0.03904861956834793,0.0779813900589943,-0.021984249353408813
1701815085881763600,10.009763671875,-0.03560696542263031,0.07539111375808716,-0.02203492633998394
1701815085891715600,10.019715576171874,-0.03348282724618912,0.07655331492424011,-0.02166634611785412
1701815085901668600,10.029668701171875,-0.027338024228811264,0.07949388772249222,-0.028265822678804398
1701815085911620600,10.03962060546875,-0.01612691394984722,0.0729406476020813,-0.040639400482177734
1701815085921573600,10.04957373046875,-0.00155238201841712,0.04695356264710426,-0.06664615124464035
1701815085931525600,10.059525634765626,0.020605385303497314,-0.027788585051894188,-0.11248660832643509
1701815085941478400,10.069478515625,0.03207426890730858,-0.15671220421791077,-0.16808685660362244
1701815085951430700,10.0794306640625,0.00792445708066225,-0.3094698190689087,-0.21454648673534393
1701815085961383700,10.0893837890625,-0.031316328793764114,-0.41022661328315735,-0.22200536727905273
1701815085971335700,10.099335693359375,-0.058885905891656876,-0.4639263153076172,-0.1896977722644806
1701815085981288700,10.109288818359374,-0.06503086537122726,-0.46244198083877563,-0.1435830146074295
1701815085991241700,10.11924169921875,-0.06106434762477875,-0.4285639226436615,-0.09874603152275085
1701815086001193500,10.129193359375,-0.04844072833657265,-0.38006162643432617,-0.052417024970054626
1701815086011146500,10.139146484375,-0.03365512192249298,-0.3221091032028198,-0.007870063185691833
1701815086021098500,10.149098388671876,-0.016461212188005447,-0.2687297761440277,0.024246105924248695
1701815086031051500,10.159051513671875,-0.004517999943345785,-0.22911737859249115,0.03900934010744095
1701815086041003800,10.169003662109375,0.0001201508566737175,-0.1915425807237625,0.04653139412403107
1701815086050956500,10.17895654296875,0.0017044651322066784,-0.16576451063156128,0.04443548619747162
1701815086060908500,10.188908447265625,0.004643877502530813,-0.14139162003993988,0.03538399562239647
1701815086070861600,10.198861572265624,0.005271051544696093,-0.12296973913908005,0.01986335776746273
1701815086080813600,10.2088134765625,0.0031432074028998613,-0.1075843945145607,0.007903190329670906
1701815086090766600,10.2187666015625,0.004084369167685509,-0.08756381273269653,-0.003278091549873352
1701815086100718600,10.228718505859375,0.007678375579416752,-0.06908475607633591,-0.006921814288944006
1701815086110671600,10.238671630859375,0.00769541971385479,-0.042308270931243896,-0.006791052874177694
1701815086120623600,10.24862353515625,0.007445181254297495,-0.01881701499223709,-0.004136422649025917
1701815086130576600,10.25857666015625,0.006247290875762701,0.007463325280696154,-0.009426525793969631
1701815086140528600,10.268528564453124,0.006738823838531971,0.022627051919698715,-0.013408963568508625
1701815086150481700,10.278481689453125,0.006991025060415268,0.03830881044268608,-0.023865334689617157
1701815086160433400,10.288433349609376,0.005742151290178299,0.046812109649181366,-0.02849942445755005
1701815086170386400,10.298386474609375,0.005225764587521553,0.058599792420864105,-0.03848707675933838
1701815086180338700,10.308338623046875,0.0043447427451610565,0.06514406949281693,-0.040974926203489304
1701815086190291700,10.318291748046875,0.0023151475470513105,0.06964747607707977,-0.03552529960870743
1701815086200244700,10.32824462890625,0.0032115536741912365,0.07158958166837692,-0.03254089877009392
1701815086210196500,10.338196533203124,-0.0021509872749447823,0.07944377511739731,-0.032092686742544174
1701815086220149500,10.3481494140625,-0.006478276569396257,0.08545044809579849,-0.029629740864038467
1701815086230101500,10.3581015625,-0.009998708963394165,0.08596976101398468,-0.021242644637823105
1701815086240054500,10.368054443359375,-0.013142919167876244,0.08314316719770432,-0.017781928181648254
1701815086250006800,10.3780068359375,-0.013563431799411774,0.07904989272356033,-0.015807725489139557
1701815086259959800,10.387959716796875,-0.013269767165184021,0.07646271586418152,-0.020202532410621643
1701815086269911600,10.39791162109375,-0.012093449011445045,0.054662883281707764,-0.03131164610385895
1701815086279864600,10.407864501953124,-0.011624651029706001,0.03184722736477852,-0.04741305485367775
1701815086289816600,10.417816650390625,-0.011661933735013008,0.009682804346084595,-0.060510482639074326
1701815086299769600,10.42776953125,-0.013888410292565823,0.0105899628251791,-0.06733538210391998
1701815086309721300,10.437721435546875,-0.010919252410531044,0.016466228291392326,-0.06577343493700027
1701815086319674400,10.44767431640625,-0.006514746230095625,0.025734782218933105,-0.05801883339881897
1701815086329626600,10.457626708984375,-0.0025772624649107456,0.029345497488975525,-0.04476774111390114
1701815086339579600,10.46757958984375,0.00018690340220928192,0.034126050770282745,-0.03678889945149422
1701815086349531600,10.47753173828125,0.0030111856758594513,0.03131082281470299,-0.02873789705336094
1701815086359484700,10.487484619140625,0.006505376659333706,0.024552827700972557,-0.012567314319312572
1701815086369436400,10.4974365234375,0.005850238725543022,0.023827914148569107,-0.000619041733443737
1701815086379389400,10.507389404296875,0.014408769086003304,0.017483603209257126,0.009427312761545181
1701815086389341700,10.517341796875,0.020317791029810905,0.014452658593654633,0.014637254178524017
1701815086399294700,10.527294677734375,0.023513993248343468,0.008190943859517574,0.01132348831743002
1701815086409246700,10.537246826171875,0.02635132521390915,0.0034329406917095184,0.002122533041983843
1701815086419199700,10.54719970703125,0.028972962871193886,-0.0005357046611607075,-0.007069485727697611
1701815086429152500,10.557152587890625,0.02966778166592121,-0.00296477391384542,-0.008474836125969887
1701815086439104500,10.5671044921875,0.031249502673745155,0.0012740935198962688,-0.007116401102393866
1701815086449057500,10.5770576171875,0.029634827747941017,0.008469955064356327,-0.005948339123278856
1701815086459009500,10.587009521484376,0.031004469841718674,0.018291160464286804,-0.0004708394408226013
1701815086468962600,10.596962646484375,0.03026597574353218,0.02031569555401802,0.003712453879415989
1701815086478914600,10.60691455078125,0.02666403166949749,0.01889583095908165,0.007212984375655651
1701815086488867600,10.61686767578125,0.020196812227368355,0.010736439377069473,0.005614022258669138
1701815086498819600,10.626819580078125,0.014379334636032581,-0.0004202532581984997,0.002091439440846443
1701815086508772600,10.636772705078124,0.010230662301182747,-0.006055502220988274,-0.00698487926274538
1701815086518724600,10.646724609375,0.006810282822698355,-0.001312855863943696,-0.014412228949368
1701815086528677600,10.656677734375,0.0032264674082398415,0.004284043330699205,-0.01829112321138382
1701815086538629600,10.666629638671875,0.005271692760288715,0.011127655394375324,-0.010602369904518127
1701815086548582700,10.676582763671876,0.004788328893482685,0.01666783168911934,0.0024676260072737932
1701815086558534700,10.68653466796875,0.006936531513929367,0.02105410024523735,0.013411348685622215
1701815086568487700,10.69648779296875,0.007978360168635845,0.019684968516230583,0.023405926302075386
1701815086578439400,10.706439453125,0.014175538904964924,0.017621951177716255,0.027896706014871597
1701815086588392400,10.716392333984375,0.013745705597102642,0.018289871513843536,0.025794140994548798
1701815086598344400,10.726344482421876,0.014141103252768517,0.019731394946575165,0.018081195652484894
1701815086608297500,10.73629736328125,0.014115270227193832,0.01392330788075924,0.01119239628314972
1701815086618249700,10.746249755859376,0.006952935829758644,0.013492811471223831,0.0053603071719408035
1701815086628202800,10.75620263671875,0.0023019916843622923,0.01890541985630989,0.004206625744700432
1701815086638154500,10.766154541015625,-0.0031989412382245064,0.02498852275311947,0.00765552232041955
1701815086648107500,10.776107421875,-0.011587899178266525,0.030973711982369423,0.01714995875954628
1701815086658060500,10.786060546875,-0.015462152659893036,0.02209637127816677,0.033652856945991516
1701815086668012500,10.796012451171874,-0.01597347855567932,0.026450373232364655,0.04083007574081421
1701815086677965600,10.805965576171875,-0.01762509159743786,0.013990553095936775,0.049884192645549774
1701815086687917600,10.81591748046875,-0.019701823592185974,0.007042632903903723,0.0473770909011364
1701815086697870600,10.82587060546875,-0.017774080857634544,0.001115991733968258,0.0346476286649704
1701815086707822600,10.835822509765626,-0.014853391796350479,-0.000927984481677413,0.024561971426010132
1701815086717775000,10.845775146484375,-0.009973214939236641,-0.00004013208672404289,0.01564744859933853
1701815086727726800,10.855726806640625,-0.00834602303802967,0.001243244856595993,0.015300437808036804
1701815086737680000,10.865679931640624,-0.003012859495356679,0.0065526110120117664,0.017042089253664017
1701815086747632000,10.875632080078125,-0.0030149901285767555,0.01841725967824459,0.018784329295158386
1701815086757585200,10.885585205078126,-0.0011722065974026918,0.025587113574147224,0.015962472185492516
1701815086767537200,10.895537109375,0.000591338612139225,0.018714560195803642,0.010897671803832054
1701815086777490200,10.905490234375,0.0024666725657880306,0.017595721408724785,-0.004038528073579073
1701815086787442000,10.91544189453125,0.002152952365577221,0.01714138686656952,-0.02200341410934925
1701815086797395000,10.92539501953125,0.001605338416993618,0.007641442585736513,-0.025615418329834938
1701815086807347000,10.935346923828124,0.003525211475789547,0.008097376674413681,-0.021383656188845634
1701815086817300000,10.945300048828125,0.00566780474036932,0.00530216796323657,-0.011585189029574394
1701815086827252200,10.955252197265626,0.0060505010187625885,0.00994778610765934,-0.0023594675585627556
1701815086837205000,10.965205078125,0.006386845372617245,0.018712118268013,-0.0003681597299873829
1701815086847157000,10.975156982421876,0.008230285719037056,0.02256518043577671,0.0025349522475153208
1701815086857110000,10.985110107421875,0.009499098174273968,0.033139705657958984,-0.0013816999271512032
1701815086867062000,10.99506201171875,0.009317203424870968,0.04178672283887863,-0.010863086208701134
1701815086877015000,11.00501513671875,0.010290253907442093,0.041203442960977554,-0.018682247027754784
1701815086886967000,11.014967041015625,0.009002615697681904,0.03916718810796738,-0.025955339893698692
1701815086896920000,11.024920166015624,0.013873206451535225,0.03375604748725891,-0.025142915546894073
1701815086906873000,11.034873046875,0.021143371239304543,0.01978324167430401,-0.017158225178718567
1701815086916825000,11.0448251953125,0.01996931992471218,0.009765006601810455,-0.006666055414825678
1701815086926778000,11.054778076171875,0.017476335167884827,0.0027518379501998425,-0.0011437241919338703
1701815086936730000,11.064730224609375,0.013152954168617725,-0.003843081183731556,0.0014332612045109272
1701815086946683000,11.074682861328125,0.007536614313721657,-0.003789551556110382,0.003393081482499838
1701815086956635000,11.084634765625,0.0014260457828640938,-0.0010665571317076683,0.0008052652701735497
1701815086966588000,11.094587890625,-0.002472289139404893,-0.00008145393803715706,-0.004563667345792055
1701815086976540200,11.1045400390625,-0.004117031116038561,-0.002609326969832182,-0.007721827831119299
1701815086986493200,11.1144931640625,-0.0034555019810795784,-0.003555281786248088,-0.01231870986521244
1701815086996445000,11.12444482421875,-0.00191396102309227,-0.0022488238755613565,-0.013181161135435104
1701815087006398000,11.13439794921875,-0.001614089123904705,0.0035566012375056744,-0.013908470049500465
1701815087016350000,11.144349853515624,-0.0016681563574820757,0.011203201487660408,-0.011805527843534946
1701815087026303000,11.154302978515625,-0.0007301908917725086,0.008252153173089027,-0.007232879288494587
1701815087036255200,11.164255126953124,-0.001200483413413167,0.014797003008425236,-0.008092296309769154
1701815087046208300,11.174208251953125,-0.0015179321635514498,0.0215342678129673,-0.01529481541365385
1701815087056160000,11.184159912109376,-0.005271376576274633,0.029505372047424316,-0.016687758266925812
1701815087066113000,11.194113037109375,-0.005649812053889036,0.03765810653567314,-0.020330961793661118
1701815087076065000,11.20406494140625,-0.0014163688756525517,0.04778122901916504,-0.023720633238554
1701815087086018000,11.21401806640625,0.0024476114194840193,0.05494619905948639,-0.022767221555113792
1701815087095970000,11.223969970703125,-0.0004534835461527109,0.05367835611104965,-0.028839217498898506
1701815087105922800,11.2339228515625,0.0010357559658586979,0.050623178482055664,-0.029418984428048134
1701815087115875000,11.243875,0.0020301127806305885,0.04406150057911873,-0.026272419840097427
1701815087125828000,11.253828125,0.0007770955562591553,0.03786379098892212,-0.02383269928395748
1701815087135780000,11.263780029296875,-0.0021216981112957,0.0287607591599226,-0.01994616724550724
1701815087145733000,11.273733154296876,-0.0038013539742678404,0.015297679230570793,-0.01465393416583538
1701815087155686100,11.28368603515625,-0.005570384673774242,0.007159368135035038,-0.009546482935547829
1701815087165638000,11.293637939453125,-0.001455268356949091,0.0068147554993629456,-0.0026936372742056847
1701815087175591000,11.3035908203125,0.000008766772225499153,0.015589647926390171,0.0064010536298155785
1701815087185543200,11.313543212890625,0.0020588680636137724,0.021718382835388184,0.015431566163897514
1701815087195496200,11.32349609375,0.0010547514539211988,0.021252017468214035,0.017780965194106102
1701815087205448200,11.3334482421875,0.001061409479007125,0.008061648346483707,0.01801479049026966
1701815087215401000,11.34340087890625,0.0015221310313791037,-0.0063621653243899345,0.019155265763401985
1701815087225353000,11.35335302734375,0.0032007216941565275,-0.014590533450245857,0.014701129868626595
1701815087235306000,11.363305908203126,0.00152783771045506,-0.020562896504998207,0.014192821457982063
1701815087245258000,11.373258056640625,0.002292164834216237,-0.019337043166160583,0.017508456483483315
1701815087255211000,11.3832109375,0.0019001089967787266,-0.016076000407338142,0.02081245742738247
1701815087265163000,11.3931630859375,0.0035326266661286354,-0.010295875370502472,0.02339811995625496
1701815087275116000,11.403115966796875,0.006441716104745865,-0.0030829268507659435,0.026154041290283203
1701815087285068000,11.413068115234376,0.005788442678749561,0.004333444405347109,0.025546574965119362
1701815087295021000,11.42302099609375,0.00506565161049366,0.013285128399729729,0.027838444337248802
1701815087304973000,11.43297314453125,0.0024917065165936947,0.02129618264734745,0.025188865140080452
1701815087314926000,11.442926025390625,-0.00045790313743054867,0.021930988878011703,0.018602803349494934
1701815087324878000,11.452878173828125,-0.003194833640009165,0.011462902650237083,0.011295887641608715
1701815087334831000,11.4628310546875,-0.0028493457939475775,0.0008344054222106934,0.005713377147912979
1701815087344783000,11.472783203125,0.0047302767634391785,-0.007075183093547821,0.002809999044984579
1701815087354736000,11.482736083984374,0.009486602619290352,-0.006995866075158119,-0.004915464203804731
1701815087364688100,11.492688232421875,0.014267508871853352,-0.0010682018473744392,-0.008676113560795784
1701815087374641000,11.502640869140626,0.01724998466670513,0.005989707540720701,-0.00835200771689415
1701815087384593000,11.512593017578125,0.01891258731484413,0.01107874233275652,-0.00022249016910791397
1701815087394546000,11.5225458984375,0.016341134905815125,0.011883593164384365,0.01086051668971777
1701815087404498200,11.532498291015624,0.016581619158387184,0.012584804557263851,0.015919990837574005
1701815087414451200,11.542451171875,0.017703261226415634,0.01111096516251564,0.014196760952472687
1701815087424404200,11.552404296875,0.02074512280523777,0.010564484633505344,0.0038213517982512712
1701815087434356000,11.56235595703125,0.022897645831108093,0.011686699464917183,-0.00990600511431694
1701815087444309000,11.57230908203125,0.02245981991291046,0.014712050557136536,-0.019607901573181152
1701815087454261000,11.582260986328125,0.020878810435533524,0.01908779889345169,-0.018174918368458748
1701815087464214000,11.592214111328126,0.01699884980916977,0.013895167037844658,-0.011338317766785622
1701815087474166300,11.602166259765625,0.015944669023156166,0.023803947493433952,-0.0022540539503097534
1701815087484119000,11.612119140625,0.013776589184999466,0.01602325774729252,0.012108907103538513
1701815087494071000,11.622071044921874,0.012796382419764996,0.00827935989946127,0.01532897911965847
1701815087504024000,11.632024169921875,0.014141811989247799,-0.0023980517871677876,0.012907632626593113
1701815087513976000,11.64197607421875,0.01680879108607769,-0.0075224619358778,0.008424147963523865
1701815087523929000,11.65192919921875,0.0192133579403162,-0.010941161774098873,0.00465204706415534
1701815087533880800,11.661880859375,0.021433178335428238,-0.009098608046770096,-0.001562430988997221
1701815087543833900,11.671833740234375,0.023637741804122925,-0.0018643976654857397,-0.0038290475495159626
1701815087553786000,11.6817861328125,0.024424541741609573,0.003000708296895027,-0.005879104137420654
1701815087563739100,11.6917392578125,0.027153220027685165,0.006438050419092178,-0.008525487035512924
1701815087573691100,11.701691162109375,0.021184712648391724,0.00802125595510006,-0.011755365878343582
1701815087583644200,11.71164404296875,0.017405953258275986,0.008664142340421677,-0.012980420142412186
1701815087593596000,11.721595947265625,0.010599176399409771,0.008322592824697495,-0.010739794000983238
1701815087603549000,11.731548828125,0.005712276324629784,0.0046192011795938015,-0.006993258837610483
1701815087613501200,11.741501220703125,0.0036153197288513184,0.0032163779251277447,-0.0018070260994136333
1701815087623454200,11.7514541015625,-0.001321115531027317,0.0019218153320252895,-0.0006357678212225437
1701815087633406200,11.76140625,-0.00244012544862926,0.0056741246953606606,-0.0022417898289859295
1701815087643359000,11.77135888671875,-0.003103252500295639,0.009454214945435524,-0.0028449958190321922
1701815087653311000,11.78131103515625,-0.0033909333869814873,0.008472261019051075,-0.006019291467964649
1701815087663264000,11.791263916015625,-0.0018598820315673947,0.010610513389110565,-0.008138102479279041
1701815087673216000,11.801216064453126,-0.0014688505325466394,0.011262767016887665,-0.008181080222129822
1701815087683169000,11.8111689453125,-0.0029463721439242363,0.007218756712973118,-0.005334161687642336
1701815087693122000,11.8211220703125,-0.0055030942894518375,0.0020548435859382153,0.00045746704563498497
1701815087703074000,11.831073974609374,-0.011654463596642017,-0.002748167607933283,0.005292702466249466
1701815087713027000,11.841027099609375,-0.014946207404136658,-0.0075276559218764305,0.0047866953536868095
1701815087722979300,11.850979248046874,-0.017029065638780594,-0.007501823827624321,0.00044174795038998127
1701815087732932400,11.860932373046875,-0.01704859733581543,-0.008182704448699951,-0.0015192432329058647
1701815087742884400,11.87088427734375,-0.012636804953217506,-0.005992254242300987,-0.0018396214582026005
1701815087752837400,11.88083740234375,-0.013816497288644314,-0.008250836282968521,-0.0010007782839238644
1701815087762789400,11.890789306640626,-0.016439711675047874,-0.006673446390777826,0.0034967679530382156
1701815087772742400,11.900742431640625,-0.01949683576822281,-0.004280375316739082,0.0061765448190271854
1701815087782694400,11.9106943359375,-0.01781638152897358,-0.0011516939848661423,0.007959265261888504
1701815087792647400,11.9206474609375,-0.021758753806352615,0.00040022004395723343,0.005846422165632248
1701815087802599400,11.930599365234375,-0.02268367074429989,0.004431713372468948,0.0021741895470768213
1701815087812552400,11.940552490234374,-0.018847817555069923,0.0048860893584787846,-0.0025837095454335213
1701815087822504400,11.95050439453125,-0.01624803990125656,0.005023242440074682,-0.004313965328037739
1701815087832457200,11.960457275390626,-0.011119259521365166,-0.00006813975051045418,-0.0024151229299604893
1701815087842409500,11.970409423828125,-0.007468865253031254,-0.008535128086805344,0.004519215784966946
1701815087852362500,11.980362548828126,-0.0026125824078917503,-0.015945106744766235,0.007900146767497063
1701815087862314500,11.990314453125,-0.00435588788241148,-0.020143847912549973,0.013663227669894695
1701815087872267500,12.000267578125,-0.0056432439014315605,-0.022560670971870422,0.019362546503543854
1701815087882219300,12.01021923828125,-0.006801718845963478,-0.018473783507943153,0.019389711320400238
1701815087892172300,12.02017236328125,-0.006948662456125021,-0.011869361624121666,0.011561360210180283
1701815087902124300,12.030124267578126,-0.007413117680698633,-0.006209610961377621,0.0009502614848315716
1701815087912077300,12.040077392578125,-0.004052008967846632,-0.0009523129556328058,-0.006353256292641163
1701815087922029600,12.050029541015626,-0.00021892134100198746,0.005313572473824024,-0.012259881012141705
1701815087931982600,12.059982666015625,0.0042702616192400455,0.008131422102451324,-0.01274041272699833
1701815087941934300,12.069934326171875,0.006068960297852755,0.008387618698179722,-0.011352639645338058
1701815087951887400,12.079887451171874,0.004846486262977123,0.005203098524361849,-0.006524119060486555
1701815087961839400,12.08983935546875,0.0022200769744813442,-0.0012207124382257462,-0.0055147805251181126
1701815087971792400,12.09979248046875,0.001750465715304017,-0.006892223842442036,-0.003725664224475622
1701815087981744600,12.10974462890625,0.0013699003029614687,-0.008159089833498001,-0.006650347728282213
1701815087991697400,12.119697509765626,0.0016871008556336164,-0.006928578019142151,-0.007748113013803959
1701815088001650400,12.129650390625,0.0035116320941597223,-0.008403437212109566,-0.009427501820027828
