time,seconds_elapsed,z,y,x
1701792819713133800,0.0121337890625,-0.174957275390625,-0.316375732421875,0.102020263671875
1701792819723086600,0.022086669921875,-0.171966552734375,-0.3047332763671875,0.062835693359375
1701792819733039600,0.03203955078125,-0.191314697265625,-0.28253173828125,0.0633087158203125
1701792819742992600,0.04199267578125,-0.22869873046875,-0.2497100830078125,0.0813751220703125
1701792819752946700,0.05194677734375,-0.2649993896484375,-0.2297821044921875,0.0964202880859375
1701792819762899700,0.061899658203125,-0.294891357421875,-0.2029571533203125,0.10919189453125
1701792819772852700,0.071852783203125,-0.3098602294921875,-0.1658172607421875,0.11236572265625
1701792819782805800,0.0818056640625,-0.2913360595703125,-0.132049560546875,0.102264404296875
1701792819792758800,0.0917587890625,-0.2442474365234375,-0.1063385009765625,0.086151123046875
1701792819802712600,0.101712646484375,-0.1894073486328125,-0.064453125,0.04052734375
1701792819812665600,0.11166552734375,-0.170013427734375,-0.0020294189453125,-0.0269012451171875
1701792819822618600,0.12161865234375,-0.171417236328125,0.0218353271484375,-0.0908203125
1701792819832571600,0.131571533203125,-0.148895263671875,0.0231170654296875,-0.113006591796875
1701792819842525700,0.141525634765625,-0.098236083984375,-0.013275146484375,-0.1191864013671875
1701792819852478700,0.151478759765625,-0.0629425048828125,-0.0782318115234375,-0.093597412109375
1701792819862431700,0.161431640625,-0.092376708984375,-0.150360107421875,-0.0473175048828125
1701792819872384500,0.171384521484375,-0.2110748291015625,-0.210540771484375,0.04644775390625
1701792819882337500,0.181337646484375,-0.3733673095703125,-0.2445220947265625,0.1504974365234375
1701792819892291600,0.19129150390625,-0.5379791259765625,-0.2475128173828125,0.2066802978515625
1701792819902244600,0.20124462890625,-0.669952392578125,-0.2360992431640625,0.228271484375
1701792819912197600,0.21119775390625,-0.752410888671875,-0.245574951171875,0.2463226318359375
1701792819922150700,0.221150634765625,-0.77410888671875,-0.313568115234375,0.2611236572265625
1701792819932103700,0.231103759765625,-0.7359466552734375,-0.43603515625,0.27587890625
1701792819942057700,0.2410576171875,-0.672027587890625,-0.534149169921875,0.3592529296875
1701792819952010800,0.2510107421875,-0.62603759765625,-0.6005859375,0.4581146240234375
1701792819961963800,0.2609638671875,-0.6348419189453125,-0.6538238525390625,0.5001068115234375
1701792819971916800,0.270916748046875,-0.682342529296875,-0.692718505859375,0.534820556640625
1701792819981869600,0.28086962890625,-0.7223052978515625,-0.7394561767578125,0.58154296875
1701792819991823600,0.29082373046875,-0.727996826171875,-0.799713134765625,0.5740814208984375
1701792820001776400,0.3007763671875,-0.673858642578125,-0.860107421875,0.574951171875
1701792820011729400,0.3107294921875,-0.5622100830078125,-0.8896331787109375,0.6304779052734375
1701792820021682400,0.320682373046875,-0.45263671875,-0.9201202392578125,0.7418212890625
1701792820031635500,0.330635498046875,-0.3957977294921875,-0.955902099609375,0.867431640625
1701792820041589500,0.340589599609375,-0.3787841796875,-0.97607421875,0.949859619140625
1701792820051542500,0.35054248046875,-0.375732421875,-0.96807861328125,0.9695281982421875
1701792820061495600,0.36049560546875,-0.4014129638671875,-0.9547882080078125,0.9346923828125
1701792820071448600,0.370448486328125,-0.4869537353515625,-0.9387969970703125,0.8934173583984375
1701792820081401600,0.380401611328125,-0.5652923583984375,-0.9488525390625,0.8592681884765625
1701792820091355600,0.390355712890625,-0.5680389404296875,-1.009063720703125,0.8316497802734375
1701792820101308700,0.40030859375,-0.5093231201171875,-1.0847625732421875,0.8497772216796875
1701792820111261700,0.41026171875,-0.4512939453125,-1.1579437255859375,0.89501953125
1701792820121214700,0.420214599609375,-0.451812744140625,-1.2301788330078125,0.9235992431640625
1701792820131168500,0.43016845703125,-0.5508575439453125,-1.258636474609375,0.9235687255859375
1701792820141121500,0.44012158203125,-0.73419189453125,-1.23480224609375,0.89044189453125
1701792820151074600,0.450074462890625,-0.9644317626953125,-1.18670654296875,0.832122802734375
1701792820161027600,0.460027587890625,-1.16094970703125,-1.158233642578125,0.788848876953125
1701792820170980600,0.469980712890625,-1.2149200439453125,-1.16748046875,0.757537841796875
1701792820180934700,0.4799345703125,-1.075714111328125,-1.2148284912109375,0.75506591796875
1701792820190887700,0.4898876953125,-0.83135986328125,-1.277069091796875,0.756072998046875
1701792820200840400,0.49984033203125,-0.620208740234375,-1.31622314453125,0.737701416015625
1701792820210793500,0.50979345703125,-0.474273681640625,-1.310546875,0.7048187255859375
1701792820220746500,0.51974658203125,-0.411102294921875,-1.2657928466796875,0.6363983154296875
1701792820230700500,0.529700439453125,-0.4559478759765625,-1.21160888671875,0.5663909912109375
1701792820240653600,0.539653564453125,-0.605010986328125,-1.199127197265625,0.5221710205078125
1701792820250606600,0.549606689453125,-0.7899322509765625,-1.233978271484375,0.526519775390625
1701792820260559600,0.5595595703125,-0.9290313720703125,-1.2690887451171875,0.5417022705078125
1701792820270512600,0.5695126953125,-0.9710693359375,-1.294952392578125,0.5329132080078125
1701792820280466400,0.579466552734375,-0.89654541015625,-1.305267333984375,0.4918212890625
1701792820290419500,0.58941943359375,-0.7702178955078125,-1.3091278076171875,0.4224853515625
1701792820300372500,0.59937255859375,-0.6710357666015625,-1.315643310546875,0.3201751708984375
1701792820310325500,0.609325439453125,-0.619110107421875,-1.31793212890625,0.20977783203125
1701792820320278500,0.619278564453125,-0.59503173828125,-1.3214569091796875,0.1255950927734375
1701792820330232600,0.629232666015625,-0.5869293212890625,-1.3143310546875,0.132965087890625
1701792820340185600,0.639185546875,-0.5947723388671875,-1.3051605224609375,0.2352752685546875
1701792820350138600,0.649138671875,-0.576324462890625,-1.3028564453125,0.3728179931640625
1701792820360091600,0.659091552734375,-0.5014495849609375,-1.29522705078125,0.4382781982421875
1701792820370045700,0.669045654296875,-0.4144439697265625,-1.285003662109375,0.40765380859375
1701792820379998700,0.678998779296875,-0.349639892578125,-1.2481231689453125,0.386444091796875
1701792820389951500,0.688951416015625,-0.3303985595703125,-1.193695068359375,0.3645782470703125
1701792820399904500,0.698904541015625,-0.4595947265625,-1.13751220703125,0.314361572265625
1701792820409857500,0.708857421875,-0.6768798828125,-1.16552734375,0.281036376953125
1701792820419811600,0.7188115234375,-0.869964599609375,-1.2291259765625,0.3836212158203125
1701792820429764600,0.7287646484375,-1.0416259765625,-1.2913970947265625,0.5836029052734375
1701792820439717600,0.738717529296875,-1.077850341796875,-1.3402862548828125,0.808319091796875
1701792820449670700,0.748670654296875,-0.90130615234375,-1.4248199462890625,1.0391693115234375
1701792820459623700,0.758623779296875,-0.6335296630859375,-1.568939208984375,1.19659423828125
1701792820469577500,0.768577392578125,-0.3964996337890625,-1.629669189453125,1.3175048828125
1701792820479530500,0.778530517578125,-0.252899169921875,-1.5874481201171875,1.3575286865234375
1701792820489483500,0.7884833984375,-0.246826171875,-1.5262603759765625,1.2768707275390625
1701792820499436500,0.7984365234375,-0.3461151123046875,-1.4456024169921875,1.1621246337890625
1701792820509389600,0.8083896484375,-0.44647216796875,-1.3381805419921875,1.0653533935546875
1701792820519343600,0.818343505859375,-0.463653564453125,-1.236572265625,0.9884033203125
1701792820529296600,0.828296630859375,-0.364654541015625,-1.1414337158203125,0.93756103515625
1701792820539249700,0.838249755859375,-0.17852783203125,-1.0188446044921875,0.92572021484375
1701792820549202700,0.84820263671875,0.0183258056640625,-0.8735198974609375,0.9576873779296875
1701792820559155500,0.858155517578125,0.11956787109375,-0.7165069580078125,0.9128265380859375
1701792820569109800,0.86810986328125,0.0828094482421875,-0.5595855712890625,0.8247222900390625
1701792820579062500,0.8780625,-0.0267791748046875,-0.4168548583984375,0.814788818359375
1701792820589015600,0.888015625,-0.143798828125,-0.356781005859375,0.7871856689453125
1701792820598968600,0.897968505859375,-0.2183074951171875,-0.3516082763671875,0.65765380859375
1701792820608922400,0.90792236328125,-0.2190093994140625,-0.3296966552734375,0.54119873046875
1701792820618875400,0.91787548828125,-0.1575775146484375,-0.3400115966796875,0.4648590087890625
1701792820628828400,0.927828369140625,-0.0478057861328125,-0.343353271484375,0.3481903076171875
1701792820638781400,0.937781494140625,0.0463714599609375,-0.295501708984375,0.1669464111328125
1701792820648734500,0.947734375,0.0653839111328125,-0.2923736572265625,0.0426788330078125
1701792820658688500,0.9576884765625,-0.0259552001953125,-0.3167572021484375,-0.048095703125
1701792820668641500,0.9676416015625,-0.17626953125,-0.27410888671875,-0.110076904296875
1701792820678594600,0.977594482421875,-0.31640625,-0.192169189453125,-0.123748779296875
1701792820688547600,0.987547607421875,-0.402191162109375,-0.150238037109375,-0.126556396484375
1701792820698500600,0.99750048828125,-0.370697021484375,-0.14312744140625,-0.21441650390625
1701792820708454700,1.00745458984375,-0.2279205322265625,-0.157501220703125,-0.3014373779296875
1701792820718407700,1.01740771484375,-0.00787353515625,-0.202392578125,-0.3873291015625
1701792820728360700,1.027360595703125,0.222625732421875,-0.2154693603515625,-0.5048980712890625
1701792820738313700,1.037313720703125,0.381317138671875,-0.1808624267578125,-0.5062255859375
1701792820748266500,1.0472666015625,0.5232391357421875,-0.2374267578125,-0.473175048828125
1701792820758220800,1.057220703125,0.7075347900390625,-0.329254150390625,-0.412689208984375
1701792820768173600,1.067173583984375,0.7819061279296875,-0.3756561279296875,-0.3411102294921875
1701792820778126600,1.077126708984375,0.6243896484375,-0.475128173828125,-0.313934326171875
1701792820788079600,1.08707958984375,0.219451904296875,-0.7105255126953125,-0.3313446044921875
1701792820798032600,1.09703271484375,-0.2973785400390625,-0.7939910888671875,-0.2282867431640625
1701792820807986400,1.106986328125,-0.735260009765625,-0.7733306884765625,-0.15252685546875
1701792820817939500,1.116939453125,-0.9868316650390625,-0.7136688232421875,-0.1011505126953125
1701792820827892500,1.126892578125,-1.0737152099609375,-0.6406097412109375,-0.0423736572265625
1701792820837845500,1.136845458984375,-1.001678466796875,-0.554046630859375,0.091644287109375
1701792820847798500,1.146798583984375,-0.744659423828125,-0.443359375,0.1322174072265625
1701792820857752600,1.156752685546875,-0.4013214111328125,-0.36859130859375,0.08349609375
1701792820867705000,1.166705078125,-0.1317291259765625,-0.244903564453125,-0.0033721923828125
1701792820877658000,1.176658203125,-0.086639404296875,-0.0424346923828125,-0.08563232421875
1701792820887611100,1.186611083984375,-0.28875732421875,0.15264892578125,-0.16925048828125
1701792820897564200,1.196564208984375,-0.5668792724609375,0.311187744140625,-0.2070465087890625
1701792820907518200,1.206518310546875,-0.8095550537109375,0.405303955078125,-0.2634429931640625
1701792820917471200,1.21647119140625,-0.9561614990234375,0.436981201171875,-0.393951416015625
1701792820927424300,1.22642431640625,-0.9888763427734375,0.470367431640625,-0.5223388671875
1701792820937377300,1.236377197265625,-1.0126953125,0.527923583984375,-0.632354736328125
1701792820947330000,1.246330078125,-1.1457061767578125,0.576324462890625,-0.709014892578125
1701792820957284000,1.2562841796875,-1.3525238037109375,0.5828399658203125,-0.734039306640625
1701792820967237000,1.266237060546875,-1.51068115234375,0.5751190185546875,-0.6935882568359375
1701792820977190100,1.276190185546875,-1.55419921875,0.562286376953125,-0.6083831787109375
1701792820987143000,1.286142822265625,-1.4828643798828125,0.5450592041015625,-0.509735107421875
1701792820997097000,1.296096923828125,-1.35198974609375,0.524505615234375,-0.3832855224609375
1701792821007050000,1.306050048828125,-1.213134765625,0.52142333984375,-0.2563629150390625
1701792821017003000,1.3160029296875,-1.0753021240234375,0.450042724609375,-0.2233428955078125
1701792821026956000,1.3259560546875,-0.9310455322265625,0.2866973876953125,-0.2128753662109375
1701792821036909000,1.335908935546875,-0.7529754638671875,0.156768798828125,-0.0951690673828125
1701792821046862000,1.345862060546875,-0.5052032470703125,0.0362701416015625,0.083343505859375
1701792821056816000,1.355816162109375,-0.1669158935546875,-0.172576904296875,0.26580810546875
1701792821066769200,1.36576904296875,0.1428680419921875,-0.3975067138671875,0.4189605712890625
1701792821076722200,1.37572216796875,0.3474273681640625,-0.521728515625,0.516021728515625
1701792821086675200,1.38567529296875,0.4318084716796875,-0.593902587890625,0.5983734130859375
1701792821096629200,1.395629150390625,0.44091796875,-0.6786956787109375,0.559600830078125
1701792821106582300,1.405582275390625,0.3920745849609375,-0.6977996826171875,0.5223541259765625
1701792821116535300,1.415535400390625,0.324066162109375,-0.735015869140625,0.5006256103515625
1701792821126488300,1.42548828125,0.2574920654296875,-0.82745361328125,0.503875732421875
1701792821136441300,1.43544140625,0.2142486572265625,-0.9192657470703125,0.6030426025390625
1701792821146395100,1.44539501953125,0.17730712890625,-0.995086669921875,0.785552978515625
1701792821156348200,1.45534814453125,0.1374664306640625,-1.0426788330078125,1.0006866455078125
1701792821166301000,1.465301025390625,0.11834716796875,-1.10162353515625,1.1277008056640625
1701792821176254000,1.47525390625,0.0785675048828125,-1.1392974853515625,1.1278076171875
1701792821186207000,1.48520703125,-0.031829833984375,-1.0787353515625,1.0970458984375
1701792821196161000,1.4951611328125,-0.196197509765625,-0.99462890625,1.032989501953125
1701792821206114000,1.505114013671875,-0.4604644775390625,-0.9977569580078125,0.9838714599609375
1701792821216067000,1.515067138671875,-0.828582763671875,-1.0838623046875,1.02386474609375
1701792821226020000,1.52502001953125,-1.181121826171875,-1.1968231201171875,1.166656494140625
1701792821235973000,1.53497314453125,-1.397857666015625,-1.288665771484375,1.3856048583984375
1701792821245927200,1.54492724609375,-1.4598541259765625,-1.3646240234375,1.5947265625
1701792821255880200,1.554880126953125,-1.4655914306640625,-1.392974853515625,1.6996612548828125
1701792821265833200,1.564833251953125,-1.486663818359375,-1.3582763671875,1.714080810546875
1701792821275786200,1.5747861328125,-1.529144287109375,-1.2739410400390625,1.646820068359375
1701792821285739300,1.5847392578125,-1.613037109375,-1.17913818359375,1.49481201171875
1701792821295693000,1.594693115234375,-1.7297515869140625,-1.1180419921875,1.3037109375
1701792821305646000,1.60464599609375,-1.826263427734375,-1.074493408203125,1.1491546630859375
1701792821315599000,1.61459912109375,-1.798370361328125,-1.0300445556640625,1.13934326171875
1701792821325552000,1.62455224609375,-1.6158294677734375,-1.0029296875,1.2212677001953125
1701792821335505000,1.6345048828125,-1.3145904541015625,-0.9759674072265625,1.27459716796875
1701792821345459200,1.644459228515625,-1.022247314453125,-0.9475555419921875,1.2572479248046875
1701792821355412000,1.654411865234375,-0.8092498779296875,-0.9073638916015625,1.2015228271484375
1701792821365365000,1.664364990234375,-0.6653900146484375,-0.83447265625,1.11553955078125
1701792821375318000,1.674318115234375,-0.5794830322265625,-0.73944091796875,1.018524169921875
1701792821385271000,1.68427099609375,-0.561065673828125,-0.67156982421875,0.9166717529296875
1701792821395225000,1.69422509765625,-0.5913238525390625,-0.6315155029296875,0.857879638671875
1701792821405178000,1.70417822265625,-0.5993499755859375,-0.595062255859375,0.8430938720703125
1701792821415131100,1.714131103515625,-0.5617828369140625,-0.55487060546875,0.835662841796875
1701792821425084200,1.724084228515625,-0.51190185546875,-0.5184326171875,0.8384552001953125
1701792821435037200,1.734037109375,-0.4832763671875,-0.50689697265625,0.8584747314453125
1701792821444991200,1.7439912109375,-0.4816741943359375,-0.489990234375,0.8821258544921875
1701792821454944300,1.7539443359375,-0.4656219482421875,-0.4582672119140625,0.9253082275390625
1701792821464897300,1.763897216796875,-0.4252471923828125,-0.4327545166015625,0.9762725830078125
1701792821474850300,1.773850341796875,-0.36322021484375,-0.4176025390625,0.999908447265625
1701792821484803000,1.783802978515625,-0.291015625,-0.42205810546875,1.0299530029296875
1701792821494757000,1.793757080078125,-0.2335205078125,-0.430206298828125,1.112274169921875
1701792821504710100,1.803710205078125,-0.201416015625,-0.4530792236328125,1.1914520263671875
1701792821514663200,1.8136630859375,-0.19097900390625,-0.4725494384765625,1.2400970458984375
1701792821524616000,1.823615966796875,-0.215606689453125,-0.4763336181640625,1.280609130859375
1701792821534569000,1.83356884765625,-0.2880706787109375,-0.46673583984375,1.3055572509765625
1701792821544523000,1.84352294921875,-0.3997344970703125,-0.427154541015625,1.308563232421875
1701792821554476000,1.85347607421875,-0.5159149169921875,-0.36639404296875,1.2969818115234375
1701792821564429000,1.863428955078125,-0.602691650390625,-0.2928466796875,1.255401611328125
1701792821574382000,1.873382080078125,-0.6346893310546875,-0.2295989990234375,1.175872802734375
1701792821584335000,1.883335205078125,-0.6011199951171875,-0.1761932373046875,1.079986572265625
1701792821594289200,1.8932890625,-0.5147247314453125,-0.1230621337890625,0.989471435546875
1701792821604242200,1.9032421875,-0.391876220703125,-0.0788421630859375,0.9138336181640625
1701792821614196000,1.913196044921875,-0.2913970947265625,-0.052215576171875,0.8362274169921875
1701792821624149000,1.92314892578125,-0.2173004150390625,-0.0205078125,0.759429931640625
1701792821634102000,1.93310205078125,-0.1634368896484375,-0.0003662109375,0.698333740234375
1701792821644055000,1.943054931640625,-0.1318511962890625,-0.0121612548828125,0.6334686279296875
1701792821654008000,1.953008056640625,-0.1406707763671875,-0.0076751708984375,0.5840606689453125
1701792821663962000,1.962962158203125,-0.1872711181640625,-0.003326416015625,0.5366058349609375
1701792821673915100,1.9729150390625,-0.2447357177734375,-0.02947998046875,0.510040283203125
1701792821683868200,1.9828681640625,-0.27911376953125,-0.0732269287109375,0.5496826171875
1701792821693821200,1.9928212890625,-0.26348876953125,-0.1050567626953125,0.620208740234375
1701792821703774200,2.002774169921875,-0.208648681640625,-0.1221923828125,0.680206298828125
1701792821713728300,2.012728271484375,-0.1440887451171875,-0.150421142578125,0.6708984375
1701792821723681300,2.022681396484375,-0.0670166015625,-0.1979827880859375,0.63922119140625
1701792821733634300,2.03263427734375,0.01611328125,-0.2510986328125,0.6041259765625
1701792821743587000,2.042587158203125,0.1222686767578125,-0.2995452880859375,0.5891571044921875
1701792821753540000,2.0525400390625,0.24676513671875,-0.352813720703125,0.6025543212890625
1701792821763494000,2.062493896484375,0.32965087890625,-0.3995361328125,0.65826416015625
1701792821773447000,2.072447021484375,0.351409912109375,-0.44024658203125,0.721649169921875
1701792821783400000,2.08239990234375,0.34295654296875,-0.4906158447265625,0.767059326171875
1701792821793353000,2.09235302734375,0.349334716796875,-0.5425262451171875,0.8201141357421875
1701792821803306000,2.102305908203125,0.3779296875,-0.5872344970703125,0.875579833984375
1701792821813260000,2.112260009765625,0.423095703125,-0.62921142578125,0.905029296875
1701792821823213000,2.122213134765625,0.4609832763671875,-0.6635589599609375,0.9046173095703125
1701792821833166000,2.132166015625,0.495330810546875,-0.6744537353515625,0.881103515625
1701792821843119000,2.142119140625,0.543304443359375,-0.66558837890625,0.8406982421875
1701792821853072100,2.152072021484375,0.592193603515625,-0.64544677734375,0.79217529296875
1701792821863026200,2.162026123046875,0.6341552734375,-0.638092041015625,0.755035400390625
1701792821872980200,2.171980224609375,0.6817626953125,-0.6414642333984375,0.74847412109375
1701792821882933200,2.181933349609375,0.7406463623046875,-0.652313232421875,0.7752532958984375
1701792821892886300,2.19188623046875,0.7940216064453125,-0.662261962890625,0.808502197265625
1701792821902839300,2.20183935546875,0.8086090087890625,-0.65576171875,0.84271240234375
1701792821912793000,2.21179296875,0.7683868408203125,-0.63446044921875,0.8551483154296875
1701792821922746000,2.22174609375,0.6838531494140625,-0.6189727783203125,0.843963623046875
1701792821932698000,2.231697998046875,0.564910888671875,-0.5989227294921875,0.83807373046875
1701792821942652200,2.241652099609375,0.4484710693359375,-0.582916259765625,0.8715362548828125
1701792821952605000,2.25160498046875,0.3598480224609375,-0.5789642333984375,0.909332275390625
1701792821962558000,2.261557861328125,0.2967987060546875,-0.5789947509765625,0.967315673828125
1701792821972511000,2.271510986328125,0.2525787353515625,-0.5761566162109375,1.0773773193359375
1701792821982464000,2.281464111328125,0.2305755615234375,-0.588531494140625,1.2182159423828125
1701792821992418000,2.29141796875,0.23345947265625,-0.602813720703125,1.37469482421875
1701792822002371000,2.30137109375,0.228118896484375,-0.6107025146484375,1.4975738525390625
1701792822012324000,2.311323974609375,0.1956939697265625,-0.60614013671875,1.56231689453125
1701792822022277000,2.321277099609375,0.1579742431640625,-0.602996826171875,1.5592041015625
1701792822032230100,2.331230224609375,0.160064697265625,-0.6191558837890625,1.5045013427734375
1701792822042184200,2.34118408203125,0.22161865234375,-0.628173828125,1.43487548828125
1701792822052137200,2.35113720703125,0.35595703125,-0.6101226806640625,1.345123291015625
1701792822062090200,2.36109033203125,0.5174560546875,-0.58026123046875,1.2476806640625
1701792822072043300,2.371043212890625,0.6730194091796875,-0.5511016845703125,1.1739501953125
1701792822081996300,2.380996337890625,0.7847747802734375,-0.513458251953125,1.1317291259765625
1701792822091950000,2.3909501953125,0.807342529296875,-0.479248046875,1.1216278076171875
1701792822101903000,2.400903076171875,0.7763671875,-0.47320556640625,1.1367950439453125
1701792822111856000,2.410856201171875,0.7594757080078125,-0.4995574951171875,1.1861419677734375
1701792822121809000,2.420808837890625,0.750030517578125,-0.5268402099609375,1.274658203125
1701792822131762000,2.430761962890625,0.736907958984375,-0.5614471435546875,1.381591796875
1701792822141716000,2.440716064453125,0.692626953125,-0.588104248046875,1.4497833251953125
1701792822151669000,2.4506689453125,0.598907470703125,-0.5815887451171875,1.48284912109375
1701792822161622000,2.4606220703125,0.46575927734375,-0.5576324462890625,1.4979248046875
1701792822171575000,2.470574951171875,0.334228515625,-0.5196380615234375,1.4945526123046875
1701792822181528000,2.480528076171875,0.218902587890625,-0.4773406982421875,1.484527587890625
1701792822191482000,2.490482177734375,0.1569061279296875,-0.4185791015625,1.4634246826171875
1701792822201435100,2.50043505859375,0.142364501953125,-0.3326568603515625,1.4261016845703125
1701792822211388200,2.51038818359375,0.14764404296875,-0.239013671875,1.38812255859375
1701792822221341200,2.520341064453125,0.1458892822265625,-0.154449462890625,1.35693359375
1701792822231294200,2.530294189453125,0.1259002685546875,-0.0770111083984375,1.3104248046875
1701792822241248300,2.540248291015625,0.0829620361328125,-0.0075836181640625,1.2498016357421875
1701792822251201300,2.550201171875,0.0024261474609375,0.0518646240234375,1.2098541259765625
1701792822261154000,2.560154052734375,-0.0955047607421875,0.0919342041015625,1.1835479736328125
1701792822271107000,2.570107177734375,-0.170013427734375,0.0876617431640625,1.164337158203125
1701792822281060000,2.58006005859375,-0.1642913818359375,0.0388031005859375,1.1265716552734375
1701792822291014100,2.59001416015625,-0.097259521484375,-0.0008544921875,1.082794189453125
1701792822300967200,2.59996728515625,-0.0547637939453125,-0.0191650390625,1.0617523193359375
1701792822310920000,2.609919921875,-0.0731201171875,-0.0417633056640625,1.0676116943359375
1701792822320873000,2.619873046875,-0.13299560546875,-0.049560546875,1.0796661376953125
1701792822330826000,2.629825927734375,-0.2389984130859375,-0.040252685546875,1.0951995849609375
1701792822340780000,2.639780029296875,-0.3713836669921875,-0.05816650390625,1.1077423095703125
1701792822350733000,2.649733154296875,-0.4918060302734375,-0.070831298828125,1.1634674072265625
1701792822360686000,2.65968603515625,-0.5692596435546875,-0.0675201416015625,1.2433013916015625
1701792822370639000,2.66963916015625,-0.6055908203125,-0.0656585693359375,1.29205322265625
1701792822380593200,2.67959326171875,-0.618621826171875,-0.0655364990234375,1.291290283203125
1701792822390546200,2.689546142578125,-0.6402130126953125,-0.038848876953125,1.2576141357421875
1701792822400499200,2.699499267578125,-0.7371063232421875,-0.002960205078125,1.1664276123046875
1701792822410452200,2.7094521484375,-0.945831298828125,-0.00885009765625,1.026611328125
1701792822420405200,2.7194052734375,-1.1577606201171875,-0.066314697265625,0.87841796875
1701792822430359000,2.729359130859375,-1.2659759521484375,-0.141937255859375,0.731689453125
1701792822440312000,2.73931201171875,-1.2197723388671875,-0.233001708984375,0.56103515625
1701792822450265000,2.74926513671875,-1.0527496337890625,-0.3173980712890625,0.4310302734375
1701792822460218000,2.759218017578125,-0.8421478271484375,-0.4200897216796875,0.3571929931640625
1701792822470171100,2.769171142578125,-0.7013702392578125,-0.5448760986328125,0.2874603271484375
1701792822480125200,2.779125244140625,-0.6526947021484375,-0.6722564697265625,0.2928466796875
1701792822490078200,2.789078125,-0.6737060546875,-0.8134307861328125,0.317169189453125
1701792822500031200,2.79903125,-0.704345703125,-0.967071533203125,0.3488006591796875
1701792822509984000,2.80898388671875,-0.6678314208984375,-1.1124725341796875,0.3730316162109375
1701792822519937000,2.81893701171875,-0.5628814697265625,-1.2606658935546875,0.325775146484375
1701792822529891000,2.82889111328125,-0.5132293701171875,-1.3734130859375,0.2383270263671875
1701792822539844000,2.838843994140625,-0.52581787109375,-1.4171295166015625,0.114776611328125
1701792822549797000,2.848797119140625,-0.568817138671875,-1.39813232421875,-0.0367889404296875
1701792822559750100,2.858750244140625,-0.6700286865234375,-1.352996826171875,-0.16455078125
1701792822569703200,2.868703125,-0.7832489013671875,-1.3147735595703125,-0.263641357421875
1701792822579657000,2.878656982421875,-0.812164306640625,-1.27911376953125,-0.342620849609375
1701792822589610000,2.88860986328125,-0.7296905517578125,-1.21380615234375,-0.3820648193359375
1701792822599563000,2.89856298828125,-0.5860443115234375,-1.0661773681640625,-0.3011932373046875
1701792822609516000,2.90851611328125,-0.4501495361328125,-0.895751953125,-0.03875732421875
1701792822619469000,2.918468994140625,-0.3197174072265625,-0.7960052490234375,0.233184814453125
1701792822629423000,2.928423095703125,-0.329620361328125,-0.7399444580078125,0.2061920166015625
1701792822639376100,2.938376220703125,-0.6059112548828125,-0.6888580322265625,0.0277252197265625
1701792822649329200,2.9483291015625,-0.913055419921875,-0.6480560302734375,-0.1922149658203125
1701792822659282200,2.9582822265625,-1.0888519287109375,-0.648651123046875,-0.34075927734375
1701792822669235200,2.968235107421875,-1.0983734130859375,-0.687347412109375,-0.35162353515625
1701792822679189200,2.978189208984375,-0.9589385986328125,-0.725799560546875,-0.27056884765625
1701792822689142300,2.988142333984375,-0.8232269287109375,-0.7294769287109375,-0.0974273681640625
1701792822699095000,2.998094970703125,-0.783966064453125,-0.729400634765625,0.1298828125
1701792822709048000,3.008048095703125,-0.8032684326171875,-0.71148681640625,0.285919189453125
1701792822719001000,3.0180009765625,-0.9386444091796875,-0.6592864990234375,0.3517913818359375
1701792822728955100,3.027955078125,-1.2517242431640625,-0.6291656494140625,0.314544677734375
1701792822738908200,3.037908203125,-1.5459747314453125,-0.6119842529296875,0.226226806640625
1701792822748861200,3.047861083984375,-1.6435546875,-0.5875244140625,0.155059814453125
1701792822758814200,3.057814208984375,-1.5391693115234375,-0.5802764892578125,0.0833740234375
1701792822768767200,3.067767333984375,-1.266815185546875,-0.5535125732421875,0.09210205078125
1701792822778721000,3.077720947265625,-0.9291534423828125,-0.5298919677734375,0.181121826171875
1701792822788674000,3.087674072265625,-0.65020751953125,-0.5187225341796875,0.304595947265625
1701792822798627000,3.097626953125,-0.4641265869140625,-0.4930267333984375,0.4186248779296875
1701792822808580000,3.107580078125,-0.3639678955078125,-0.4644317626953125,0.482421875
1701792822818533000,3.117533203125,-0.331634521484375,-0.422393798828125,0.4748992919921875
1701792822828487200,3.127487060546875,-0.3309478759765625,-0.3770294189453125,0.4088134765625
1701792822838440200,3.137440185546875,-0.359375,-0.3432159423828125,0.3487701416015625
1701792822848393200,3.147393310546875,-0.4146881103515625,-0.33270263671875,0.3257904052734375
1701792822858346200,3.15734619140625,-0.467864990234375,-0.343292236328125,0.3571624755859375
1701792822868298800,3.167298828125,-0.4851531982421875,-0.3628692626953125,0.4585723876953125
1701792822878252800,3.177252685546875,-0.4752349853515625,-0.3942718505859375,0.5810394287109375
1701792822888205800,3.187205810546875,-0.4530181884765625,-0.4222259521484375,0.7111358642578125
1701792822898158800,3.197158935546875,-0.4285736083984375,-0.4440765380859375,0.7896575927734375
1701792822908112000,3.20711181640625,-0.411529541015625,-0.44403076171875,0.773284912109375
1701792822918065000,3.21706494140625,-0.394805908203125,-0.433807373046875,0.6848602294921875
1701792822928018700,3.227018798828125,-0.375274658203125,-0.4457244873046875,0.5816192626953125
1701792822937971700,3.2369716796875,-0.3458404541015625,-0.4569091796875,0.5232696533203125
1701792822947924700,3.2469248046875,-0.3058624267578125,-0.45709228515625,0.4981231689453125
1701792822957877800,3.256877685546875,-0.2762451171875,-0.4363861083984375,0.50177001953125
1701792822967830800,3.266830810546875,-0.2580108642578125,-0.4064483642578125,0.5087738037109375
1701792822977784800,3.276784912109375,-0.2260284423828125,-0.3619842529296875,0.5006256103515625
1701792822987737900,3.28673779296875,-0.18634033203125,-0.292510986328125,0.4842376708984375
1701792822997691000,3.29669091796875,-0.1541595458984375,-0.2374420166015625,0.416351318359375
1701792823007644000,3.306643798828125,-0.112762451171875,-0.2149810791015625,0.3227081298828125
1701792823017596700,3.3165966796875,-0.0465545654296875,-0.2164764404296875,0.244598388671875
1701792823027551000,3.326551025390625,0.041168212890625,-0.20574951171875,0.1950225830078125
1701792823037503700,3.336503662109375,0.1230316162109375,-0.1988677978515625,0.181121826171875
1701792823047456800,3.346456787109375,0.1883087158203125,-0.21038818359375,0.1844635009765625
1701792823057409800,3.356409912109375,0.2118072509765625,-0.2300567626953125,0.217315673828125
1701792823067362800,3.36636279296875,0.1702423095703125,-0.257232666015625,0.258392333984375
1701792823077316900,3.37631689453125,0.073455810546875,-0.3140411376953125,0.343414306640625
1701792823087270000,3.386269775390625,-0.02044677734375,-0.3931427001953125,0.459381103515625
1701792823097223000,3.396222900390625,-0.0885467529296875,-0.5069122314453125,0.5857696533203125
1701792823107176000,3.406176025390625,-0.119293212890625,-0.62530517578125,0.72271728515625
1701792823117129000,3.41612890625,-0.1258087158203125,-0.704803466796875,0.8023529052734375
1701792823127082800,3.426082763671875,-0.1180419921875,-0.7686767578125,0.8251190185546875
1701792823137035800,3.436035888671875,-0.0976715087890625,-0.807769775390625,0.8334503173828125
1701792823146988800,3.44598876953125,-0.098114013671875,-0.8192138671875,0.8695220947265625
1701792823156941800,3.45594189453125,-0.0886688232421875,-0.8253326416015625,0.96453857421875
1701792823166894800,3.465894775390625,-0.0193328857421875,-0.8455657958984375,1.0511016845703125
1701792823176849000,3.475848876953125,0.092132568359375,-0.8870849609375,1.05615234375
1701792823186802000,3.485802001953125,0.235595703125,-0.939056396484375,1.0263824462890625
1701792823196755000,3.4957548828125,0.3412628173828125,-1.0286102294921875,0.976348876953125
1701792823206707700,3.505707763671875,0.372802734375,-1.1529388427734375,0.968780517578125
1701792823216660700,3.51566064453125,0.331390380859375,-1.259490966796875,1.026611328125
1701792823226614800,3.52561474609375,0.2193145751953125,-1.3521575927734375,1.110504150390625
1701792823236567800,3.53556787109375,0.0805816650390625,-1.441802978515625,1.19989013671875
1701792823246520800,3.545520751953125,-0.0001220703125,-1.4972381591796875,1.2901153564453125
1701792823256473900,3.555473876953125,-0.016143798828125,-1.4887847900390625,1.3360443115234375
1701792823266427000,3.565427001953125,-0.01092529296875,-1.434967041015625,1.368408203125
1701792823276380700,3.575380615234375,-0.030426025390625,-1.3974609375,1.4289398193359375
1701792823286333700,3.585333740234375,-0.1082000732421875,-1.3655548095703125,1.5006561279296875
1701792823296286700,3.59528662109375,-0.2126007080078125,-1.319793701171875,1.4886474609375
1701792823306239700,3.60523974609375,-0.2736053466796875,-1.3530731201171875,1.4357452392578125
1701792823316192800,3.61519287109375,-0.238525390625,-1.420318603515625,1.427337646484375
1701792823326146800,3.625146728515625,-0.16339111328125,-1.4500885009765625,1.5372314453125
1701792823336099800,3.635099853515625,-0.13446044921875,-1.470855712890625,1.7239532470703125
1701792823346052900,3.645052978515625,-0.2111358642578125,-1.4675445556640625,1.8610076904296875
1701792823356006000,3.655005859375,-0.463623046875,-1.4360504150390625,1.830078125
1701792823365959000,3.664958984375,-0.7859344482421875,-1.4026031494140625,1.6417694091796875
1701792823375913000,3.674912841796875,-1.03533935546875,-1.366485595703125,1.402923583984375
1701792823385866000,3.684865966796875,-1.1230621337890625,-1.3305511474609375,1.2432861328125
1701792823395818800,3.69481884765625,-0.9983367919921875,-1.290924072265625,1.231048583984375
1701792823405771800,3.704771728515625,-0.7496795654296875,-1.2468719482421875,1.314605712890625
1701792823415724800,3.714724853515625,-0.52020263671875,-1.220855712890625,1.3404998779296875
1701792823425678800,3.724678955078125,-0.39520263671875,-1.1210479736328125,1.3173980712890625
1701792823435631900,3.7346318359375,-0.43841552734375,-1.0380401611328125,1.231689453125
1701792823445585000,3.7445849609375,-0.5765838623046875,-0.98443603515625,1.0801239013671875
1701792823455538000,3.754537841796875,-0.6825103759765625,-0.8878631591796875,0.921142578125
1701792823465491000,3.764490966796875,-0.716461181640625,-0.7568511962890625,0.77215576171875
1701792823475444700,3.77444482421875,-0.6682891845703125,-0.655670166015625,0.6315155029296875
1701792823485397800,3.784397705078125,-0.5338287353515625,-0.604766845703125,0.53778076171875
1701792823495350800,3.794350830078125,-0.3057708740234375,-0.5900726318359375,0.5440216064453125
1701792823505303800,3.8043037109375,-0.06219482421875,-0.58697509765625,0.5694427490234375
1701792823515256800,3.8142568359375,0.1219329833984375,-0.564727783203125,0.5552978515625
1701792823525211000,3.8242109375,0.2180023193359375,-0.5719757080078125,0.5195465087890625
1701792823535164000,3.834163818359375,0.195556640625,-0.57977294921875,0.484375
1701792823545117000,3.844116943359375,-0.0118865966796875,-0.5936279296875,0.4012908935546875
1701792823555070000,3.854070068359375,-0.2427520751953125,-0.6351165771484375,0.2805328369140625
1701792823565022700,3.864022705078125,-0.4275665283203125,-0.670440673828125,0.1487884521484375
1701792823574975700,3.873975830078125,-0.5660400390625,-0.70794677734375,0.0199127197265625
1701792823584929800,3.8839296875,-0.592803955078125,-0.7943878173828125,-0.0819091796875
1701792823594882800,3.8938828125,-0.447540283203125,-0.9322967529296875,-0.0943145751953125
1701792823604835800,3.9038359375,-0.182586669921875,-1.0549468994140625,-0.0850830078125
1701792823614788900,3.913788818359375,0.047210693359375,-1.209381103515625,-0.053466796875
1701792823624742700,3.92374267578125,0.16839599609375,-1.365020751953125,0.11065673828125
1701792823634695700,3.93369580078125,0.001953125,-1.486053466796875,0.319488525390625
1701792823644648700,3.943648681640625,-0.5910797119140625,-1.6098480224609375,0.5126800537109375
1701792823654601700,3.953601806640625,-1.30560302734375,-1.74102783203125,0.7733917236328125
1701792823664554800,3.9635546875,-1.8640899658203125,-1.832672119140625,0.9768829345703125
1701792823674507800,3.9735078125,-2.0131378173828125,-1.8235015869140625,1.0469818115234375
1701792823684461800,3.9834619140625,-1.6613311767578125,-1.6545257568359375,1.0616302490234375
1701792823694414800,3.993414794921875,-1.0093231201171875,-1.393707275390625,1.0581817626953125
1701792823704367900,4.003367919921875,-0.3514404296875,-1.1396026611328125,1.0302886962890625
1701792823714321000,4.01332080078125,0.200347900390625,-0.8943023681640625,0.96527099609375
1701792823724274000,4.02327392578125,0.566680908203125,-0.659423828125,0.89556884765625
1701792823734228000,4.03322802734375,0.6652679443359375,-0.461151123046875,0.8041534423828125
1701792823744181000,4.043180908203125,0.5291290283203125,-0.318603515625,0.761962890625
1701792823754134000,4.053134033203125,0.2838287353515625,-0.1584930419921875,0.8828582763671875
1701792823764086800,4.063086669921875,0.03131103515625,0.00408935546875,1.1042633056640625
1701792823774039800,4.073039794921875,-0.145294189453125,0.1144561767578125,1.334869384765625
1701792823783993600,4.08299365234375,-0.287353515625,0.215789794921875,1.35833740234375
1701792823793946600,4.092946533203125,-0.5451202392578125,0.341400146484375,1.2398223876953125
1701792823803899600,4.102899658203125,-0.8085174560546875,0.411834716796875,1.034271240234375
1701792823813852700,4.112852783203125,-0.9496917724609375,0.426544189453125,0.7666168212890625
1701792823823805700,4.1228056640625,-0.9391021728515625,0.393463134765625,0.488555908203125
1701792823833759700,4.132759765625,-0.7624664306640625,0.33526611328125,0.20977783203125
1701792823843712800,4.142712646484375,-0.4898529052734375,0.2935028076171875,-0.0428619384765625
1701792823853665800,4.152665771484375,-0.2428131103515625,0.2482452392578125,-0.2097625732421875
1701792823863618800,4.162618896484375,-0.09185791015625,0.218719482421875,-0.275848388671875
1701792823873571000,4.172571044921875,-0.0476531982421875,0.1937713623046875,-0.23638916015625
1701792823883525000,4.182525146484375,-0.1087188720703125,0.17071533203125,-0.1350555419921875
1701792823893478100,4.19247802734375,-0.1996917724609375,0.1770782470703125,-0.0764312744140625
1701792823903431200,4.20243115234375,-0.257476806640625,0.1868438720703125,-0.0300445556640625
1701792823913384200,4.21238427734375,-0.26409912109375,0.184326171875,0.016510009765625
1701792823923337200,4.222337158203125,-0.2564239501953125,0.1806793212890625,0.0147857666015625
1701792823933290200,4.232290283203125,-0.303436279296875,0.171630859375,0.014923095703125
1701792823943244300,4.242244384765625,-0.3804473876953125,0.1577301025390625,-0.01708984375
1701792823953197300,4.252197265625,-0.464385986328125,0.1725921630859375,-0.0413665771484375
1701792823963150300,4.262150390625,-0.557830810546875,0.1926727294921875,-0.0310211181640625
1701792823973103400,4.272103271484375,-0.62738037109375,0.1568145751953125,0.029052734375
1701792823983056400,4.282056396484375,-0.5841522216796875,0.0880126953125,0.1457366943359375
1701792823993010200,4.29201025390625,-0.396270751953125,0.06024169921875,0.2840118408203125
1701792824002963200,4.301963134765625,-0.1868743896484375,0.0586090087890625,0.3197784423828125
1701792824012916200,4.311916259765625,-0.1281890869140625,0.0508270263671875,0.286865234375
1701792824022869200,4.321869140625,-0.1965179443359375,0.0298004150390625,0.23736572265625
1701792824032822000,4.331822021484375,-0.270782470703125,0.0195159912109375,0.1916046142578125
1701792824042776300,4.3417763671875,-0.32977294921875,0.06390380859375,0.187103271484375
1701792824052729000,4.35172900390625,-0.374237060546875,0.0726318359375,0.1950225830078125
1701792824062682000,4.36168212890625,-0.4051513671875,0.0032196044921875,0.2700042724609375
1701792824072635100,4.37163525390625,-0.400390625,-0.12286376953125,0.36334228515625
1701792824082588200,4.381588134765625,-0.403045654296875,-0.275634765625,0.427276611328125
1701792824092542200,4.391542236328125,-0.4156646728515625,-0.4654388427734375,0.4380340576171875
1701792824102495200,4.4014951171875,-0.3489837646484375,-0.6644287109375,0.343719482421875
1701792824112448300,4.4114482421875,-0.33343505859375,-0.7600250244140625,0.214508056640625
1701792824122401300,4.4214013671875,-0.6035919189453125,-0.7423553466796875,0.1138763427734375
1701792824132354300,4.431354248046875,-1.1359100341796875,-0.7698211669921875,0.0370635986328125
1701792824142308400,4.441308349609375,-1.70404052734375,-0.8207244873046875,0.1403961181640625
1701792824152261400,4.451261474609375,-2.113555908203125,-0.9203033447265625,0.5828857421875
1701792824162214400,4.46121435546875,-2.1590728759765625,-1.151153564453125,1.05712890625
1701792824172167400,4.47116748046875,-1.878387451171875,-1.370025634765625,1.5592041015625
1701792824182120400,4.481120361328125,-1.486602783203125,-1.5069122314453125,1.99554443359375
1701792824192073500,4.491073486328125,-1.1984100341796875,-1.5886993408203125,1.9775238037109375
1701792824202027300,4.50102734375,-1.076385498046875,-1.5700836181640625,1.5180206298828125
1701792824211980300,4.510980224609375,-1.2152099609375,-1.469482421875,0.9605255126953125
1701792824221933000,4.52093310546875,-1.5607757568359375,-1.375701904296875,0.52911376953125
1701792824231886000,4.530885986328125,-1.7897491455078125,-1.3201446533203125,0.1942291259765625
1701792824241839000,4.540839111328125,-1.7111968994140625,-1.4127044677734375,0.1228790283203125
1701792824251793200,4.550793212890625,-1.552337646484375,-1.5251617431640625,0.6829986572265625
1701792824261746200,4.56074609375,-1.5048828125,-1.6575164794921875,1.3507537841796875
1701792824271699200,4.57069921875,-1.4518585205078125,-1.8991241455078125,1.85113525390625
1701792824281652200,4.58065234375,-1.3626251220703125,-2.040283203125,2.1495513916015625
1701792824291605200,4.590605224609375,-1.31201171875,-1.938262939453125,2.1611480712890625
1701792824301559300,4.600559326171875,-1.54541015625,-1.6575469970703125,1.8115997314453125
1701792824311512300,4.61051220703125,-2.00128173828125,-1.4289398193359375,1.3237457275390625
1701792824321465300,4.62046533203125,-2.273651123046875,-1.2881927490234375,0.9740447998046875
1701792824331418400,4.63041845703125,-2.1744842529296875,-1.1826629638671875,0.7709197998046875
1701792824341371400,4.640371337890625,-1.792266845703125,-1.09063720703125,0.7180938720703125
1701792824351325200,4.6503251953125,-1.3566131591796875,-1.0310821533203125,0.8071746826171875
1701792824361278200,4.6602783203125,-0.9982147216796875,-0.992950439453125,0.86041259765625
1701792824371231200,4.670231201171875,-0.751953125,-0.9507904052734375,0.8386077880859375
1701792824381184300,4.680184326171875,-0.6544036865234375,-0.8791351318359375,0.8065185546875
1701792824391137000,4.690136962890625,-0.6872711181640625,-0.75677490234375,0.78466796875
1701792824401090000,4.700090087890625,-0.77838134765625,-0.618743896484375,0.7999420166015625
1701792824411044400,4.71004443359375,-0.9218292236328125,-0.4843292236328125,0.8414459228515625
1701792824420997000,4.7199970703125,-1.142791748046875,-0.287445068359375,0.8858184814453125
1701792824430950100,4.7299501953125,-1.3658905029296875,-0.074737548828125,0.908599853515625
1701792824440903200,4.739903076171875,-1.5223236083984375,0.036590576171875,0.94354248046875
1701792824450856200,4.749856201171875,-1.6457977294921875,0.0601043701171875,0.9770355224609375
1701792824460810200,4.759810302734375,-1.7109832763671875,0.038055419921875,1.039794921875
1701792824470763300,4.76976318359375,-1.6404876708984375,0.0229949951171875,1.107574462890625
1701792824480716300,4.77971630859375,-1.4410400390625,0.0449981689453125,1.1148681640625
1701792824490669300,4.78966943359375,-1.193695068359375,0.0650177001953125,1.043609619140625
1701792824500622300,4.799622314453125,-0.95513916015625,0.0898284912109375,0.92645263671875
1701792824510576000,4.809576171875,-0.7335052490234375,0.09637451171875,0.7698974609375
1701792824520529200,4.819529052734375,-0.565277099609375,0.09991455078125,0.6244659423828125
1701792824530482200,4.829482177734375,-0.4683990478515625,0.138275146484375,0.5004119873046875
1701792824540435200,4.839435302734375,-0.4262237548828125,0.187164306640625,0.3981170654296875
1701792824550388200,4.84938818359375,-0.374053955078125,0.18988037109375,0.3359375
1701792824560341200,4.85934130859375,-0.2663421630859375,0.1317901611328125,0.315216064453125
1701792824570295300,4.86929541015625,-0.1030120849609375,0.0357208251953125,0.3965301513671875
1701792824580248300,4.879248291015625,0.0826263427734375,-0.0654296875,0.57708740234375
1701792824590201000,4.889201171875,0.240997314453125,-0.1508636474609375,0.723052978515625
1701792824600154000,4.899154052734375,0.3455657958984375,-0.2357330322265625,0.8504486083984375
1701792824610107100,4.909107177734375,0.3945465087890625,-0.3305511474609375,0.9521484375
1701792824620061200,4.919061279296875,0.3672332763671875,-0.3941497802734375,0.975189208984375
1701792824630014200,4.92901416015625,0.2481231689453125,-0.413543701171875,0.9241790771484375
1701792824639967200,4.93896728515625,0.0778961181640625,-0.349700927734375,0.9266204833984375
1701792824649920300,4.948920166015625,-0.1049346923828125,-0.2315521240234375,0.9960174560546875
1701792824659873300,4.958873291015625,-0.2702484130859375,-0.148223876953125,1.036529541015625
1701792824669827300,4.968827392578125,-0.38018798828125,-0.1026153564453125,1.1207427978515625
1701792824679780400,4.9787802734375,-0.3894195556640625,-0.0938568115234375,1.2609710693359375
1701792824689733400,4.9887333984375,-0.2699127197265625,-0.158172607421875,1.3374176025390625
1701792824699686400,4.998686279296875,-0.086151123046875,-0.2726898193359375,1.2825775146484375
1701792824709639400,5.008639404296875,0.049835205078125,-0.3861236572265625,1.2457275390625
1701792824719593200,5.01859326171875,0.041229248046875,-0.4537811279296875,1.2729644775390625
1701792824729546200,5.028546142578125,-0.12200927734375,-0.4451446533203125,1.406829833984375
1701792824739499300,5.038499267578125,-0.4058380126953125,-0.443511962890625,1.540924072265625
1701792824749452300,5.048452392578125,-0.7341766357421875,-0.499542236328125,1.5674591064453125
1701792824759405000,5.058405029296875,-1.069732666015625,-0.56597900390625,1.5836944580078125
1701792824769358000,5.068358154296875,-1.291595458984375,-0.5944061279296875,1.603912353515625
1701792824779312000,5.07831201171875,-1.3035125732421875,-0.5826873779296875,1.5709686279296875
1701792824789265200,5.08826513671875,-1.094970703125,-0.5219573974609375,1.4376678466796875
1701792824799218200,5.09821826171875,-0.7799072265625,-0.4516754150390625,1.18475341796875
1701792824809171200,5.108171142578125,-0.4940338134765625,-0.4071502685546875,0.8727874755859375
1701792824819124200,5.118124267578125,-0.2682647705078125,-0.427032470703125,0.5694427490234375
1701792824829078300,5.128078369140625,-0.1374053955078125,-0.448638916015625,0.3007049560546875
1701792824839031300,5.13803125,-0.1163787841796875,-0.4487152099609375,0.0815582275390625
1701792824848984300,5.147984375,-0.2213592529296875,-0.445770263671875,-0.049530029296875
1701792824858937300,5.157937255859375,-0.3391876220703125,-0.438873291015625,-0.148834228515625
1701792824868890400,5.167890380859375,-0.3604888916015625,-0.43511962890625,-0.2623138427734375
1701792824878844400,5.177844482421875,-0.3067474365234375,-0.4284515380859375,-0.3899383544921875
1701792824888797400,5.18779736328125,-0.2884063720703125,-0.380523681640625,-0.45587158203125
1701792824898750500,5.19775048828125,-0.3251495361328125,-0.3466033935546875,-0.4355010986328125
1701792824908703500,5.207703369140625,-0.381561279296875,-0.357269287109375,-0.344512939453125
1701792824918656500,5.217656494140625,-0.4182281494140625,-0.3739471435546875,-0.2296600341796875
1701792824928609500,5.227609619140625,-0.425201416015625,-0.4100494384765625,-0.0175018310546875
1701792824938563600,5.2375634765625,-0.3292236328125,-0.470794677734375,0.1776885986328125
1701792824948516600,5.2475166015625,-0.1284332275390625,-0.526824951171875,0.2561798095703125
1701792824958469600,5.2574697265625,0.1189117431640625,-0.525421142578125,0.25518798828125
1701792824968422700,5.267422607421875,0.396453857421875,-0.48272705078125,0.1555023193359375
1701792824978375700,5.277375732421875,0.6345062255859375,-0.4207305908203125,0.060150146484375
1701792824988329700,5.287329833984375,0.710723876953125,-0.35601806640625,0.1074066162109375
1701792824998282800,5.29728271484375,0.646759033203125,-0.3380889892578125,0.2712249755859375
1701792825008235500,5.307235595703125,0.5519561767578125,-0.346923828125,0.4305572509765625
1701792825018188500,5.3171884765625,0.4748077392578125,-0.339141845703125,0.5835418701171875
1701792825028141600,5.3271416015625,0.4797515869140625,-0.2930145263671875,0.7583160400390625
1701792825038095400,5.337095458984375,0.5521087646484375,-0.261688232421875,0.8444976806640625
1701792825048048400,5.34704833984375,0.6517181396484375,-0.3238525390625,0.8948516845703125
1701792825058001400,5.35700146484375,0.7439422607421875,-0.452117919921875,1.0537261962890625
1701792825067954400,5.366954345703125,0.7877655029296875,-0.5528106689453125,1.360076904296875
1701792825077907500,5.376907470703125,0.7773590087890625,-0.566864013671875,1.6873931884765625
1701792825087860500,5.386860595703125,0.6519622802734375,-0.51336669921875,1.996551513671875
1701792825097814500,5.396814453125,0.415252685546875,-0.3754425048828125,2.2359619140625
1701792825107767600,5.406767578125,0.1356964111328125,-0.2029571533203125,2.39801025390625
1701792825117720600,5.416720458984375,0.044219970703125,-0.152679443359375,2.4994659423828125
1701792825127673600,5.426673583984375,0.1435699462890625,-0.2615814208984375,2.4413909912109375
1701792825137626600,5.436626708984375,0.2534942626953125,-0.3849639892578125,2.411224365234375
1701792825147580700,5.44658056640625,0.275482177734375,-0.350189208984375,2.4024505615234375
1701792825157533700,5.45653369140625,0.2177886962890625,-0.26287841796875,2.26458740234375
1701792825167486700,5.46648681640625,0.10015869140625,-0.1938323974609375,2.0328369140625
1701792825177439700,5.476439697265625,-0.0240631103515625,-0.07568359375,1.7740478515625
1701792825187392500,5.486392578125,-0.1138153076171875,0.0671539306640625,1.5048828125
1701792825197346600,5.4963466796875,-0.1609039306640625,0.183197021484375,1.2218780517578125
1701792825207299600,5.506299560546875,-0.15301513671875,0.248199462890625,0.95660400390625
1701792825217252600,5.516252685546875,-0.0753021240234375,0.2926483154296875,0.7202606201171875
1701792825227205600,5.52620556640625,-0.0019073486328125,0.32257080078125,0.5467987060546875
1701792825237158700,5.53615869140625,0.03582763671875,0.3229217529296875,0.435821533203125
1701792825247111700,5.546111572265625,0.0640716552734375,0.3138275146484375,0.40252685546875
1701792825257065500,5.5560654296875,0.1042633056640625,0.312103271484375,0.4441375732421875
1701792825267018500,5.5660185546875,0.152923583984375,0.2957611083984375,0.488067626953125
1701792825276971500,5.575971435546875,0.20361328125,0.26812744140625,0.4871978759765625
1701792825286924500,5.585924560546875,0.2220611572265625,0.261688232421875,0.4676666259765625
1701792825296877600,5.595877685546875,0.175750732421875,0.2723846435546875,0.431549072265625
1701792825306831600,5.60583154296875,0.0995025634765625,0.279449462890625,0.370880126953125
1701792825316784600,5.61578466796875,0.045867919921875,0.2898712158203125,0.3209686279296875
1701792825326737700,5.625737548828125,0.0500030517578125,0.277252197265625,0.2675018310546875
1701792825336690700,5.635690673828125,0.09515380859375,0.237213134765625,0.2745819091796875
1701792825346643700,5.645643798828125,0.156982421875,0.2144622802734375,0.38104248046875
1701792825356596500,5.655596435546875,0.2181243896484375,0.1912689208984375,0.4996185302734375
1701792825366550800,5.66555078125,0.263946533203125,0.172149658203125,0.654937744140625
1701792825376503600,5.675503662109375,0.2627410888671875,0.155609130859375,0.8618621826171875
1701792825386456600,5.68545654296875,0.20684814453125,0.1713714599609375,1.07855224609375
1701792825396409600,5.69540966796875,0.1017303466796875,0.2069244384765625,1.335662841796875
1701792825406362600,5.705362548828125,-0.06610107421875,0.172882080078125,1.6345672607421875
1701792825416316400,5.71531640625,-0.2808380126953125,0.0655517578125,1.89764404296875
1701792825426269400,5.72526953125,-0.541046142578125,0.024078369140625,2.0867462158203125
1701792825436222500,5.735222412109375,-0.7650604248046875,-0.014739990234375,2.1787567138671875
1701792825446175500,5.745175537109375,-0.899658203125,-0.13177490234375,2.20733642578125
1701792825456128500,5.75512841796875,-0.9375457763671875,-0.2158203125,2.247894287109375
1701792825466081500,5.76508154296875,-0.88470458984375,-0.25457763671875,2.17974853515625
1701792825476035600,5.77503564453125,-0.77032470703125,-0.2767181396484375,1.9205474853515625
1701792825485988600,5.784988525390625,-0.6920928955078125,-0.3105316162109375,1.4747161865234375
1701792825495941600,5.794941650390625,-0.6725311279296875,-0.3636627197265625,0.9364166259765625
1701792825505894700,5.804894775390625,-0.699310302734375,-0.3907318115234375,0.4672393798828125
1701792825515847700,5.81484765625,-0.7247467041015625,-0.453887939453125,0.0864715576171875
1701792825525801700,5.8248017578125,-0.730743408203125,-0.564208984375,-0.1495513916015625
1701792825535754800,5.834754638671875,-0.7265167236328125,-0.686279296875,-0.2260894775390625
1701792825545707500,5.84470751953125,-0.7086334228515625,-0.8045806884765625,-0.1540069580078125
1701792825555660500,5.85466064453125,-0.6674957275390625,-0.8957366943359375,0.0038909912109375
1701792825565613600,5.864613525390625,-0.595916748046875,-0.9543914794921875,0.13739013671875
1701792825575567400,5.8745673828125,-0.4980010986328125,-0.9672393798828125,0.214019775390625
1701792825585520400,5.884520263671875,-0.4240875244140625,-0.933807373046875,0.247772216796875
1701792825595474400,5.894474365234375,-0.4211578369140625,-0.8661651611328125,0.210418701171875
1701792825605427500,5.904427490234375,-0.4663848876953125,-0.788330078125,0.1285400390625
1701792825615380500,5.91438037109375,-0.506195068359375,-0.7218780517578125,0.074920654296875
1701792825625333500,5.92433349609375,-0.5272064208984375,-0.6634368896484375,0.055877685546875
1701792825635286500,5.93428662109375,-0.555938720703125,-0.6258392333984375,0.0850982666015625
1701792825645239600,5.944239501953125,-0.5731964111328125,-0.619354248046875,0.1636962890625
1701792825655193600,5.954193603515625,-0.587188720703125,-0.6160125732421875,0.2964324951171875
1701792825665146600,5.964146728515625,-0.6507110595703125,-0.6244659423828125,0.4522857666015625
1701792825675099600,5.974099609375,-0.7738800048828125,-0.61761474609375,0.6916961669921875
1701792825685052700,5.984052734375,-0.94732666015625,-0.4967498779296875,1.133514404296875
1701792825695005700,5.994005615234375,-1.17388916015625,-0.258453369140625,1.7385406494140625
1701792825704959700,6.003959716796875,-1.3712921142578125,-0.008544921875,2.4225616455078125
1701792825714912800,6.013912841796875,-1.4727325439453125,0.1742706298828125,2.9976654052734375
1701792825724865800,6.02386572265625,-1.5289764404296875,0.1374664306640625,3.4195098876953125
1701792825734818600,6.033818603515625,-1.59478759765625,-0.020782470703125,3.807647705078125
1701792825744771600,6.043771484375,-1.670806884765625,0.0053558349609375,4.074920654296875
1701792825754724600,6.053724609375,-1.740570068359375,0.165008544921875,4.0971221923828125
1701792825764678400,6.063678466796875,-1.7279815673828125,0.297637939453125,3.6503448486328125
1701792825774631400,6.07363134765625,-1.630859375,0.40386962890625,2.9198760986328125
1701792825784584400,6.08358447265625,-1.4462432861328125,0.5279998779296875,2.2562408447265625
1701792825794537500,6.093537353515625,-1.1963043212890625,0.65631103515625,1.8145751953125
1701792825804490500,6.103490478515625,-0.965484619140625,0.72900390625,1.592529296875
1701792825814444500,6.113444580078125,-0.73419189453125,0.737579345703125,1.4906768798828125
1701792825824397600,6.1233974609375,-0.5106353759765625,0.7412872314453125,1.45452880859375
1701792825834350600,6.1333505859375,-0.3319091796875,0.779754638671875,1.4458465576171875
1701792825844303600,6.1433037109375,-0.2003021240234375,0.8019256591796875,1.3843994140625
1701792825854256600,6.153256591796875,-0.10650634765625,0.795562744140625,1.277679443359375
1701792825864209700,6.163209716796875,-0.0390472412109375,0.7736053466796875,1.1246795654296875
1701792825874163700,6.173163818359375,0.0068206787109375,0.744415283203125,0.964080810546875
1701792825884116700,6.18311669921875,0.0428314208984375,0.69879150390625,0.817047119140625
1701792825894069800,6.19306982421875,0.0878753662109375,0.62933349609375,0.6819610595703125
1701792825904022800,6.203022705078125,0.165740966796875,0.54364013671875,0.57318115234375
1701792825913975800,6.212975830078125,0.2571868896484375,0.4593658447265625,0.5242156982421875
1701792825923929600,6.2229296875,0.3410186767578125,0.3719482421875,0.4784698486328125
1701792825933882600,6.232882568359375,0.4076385498046875,0.2944793701171875,0.42596435546875
1701792825943835600,6.242835693359375,0.46234130859375,0.2397308349609375,0.3885040283203125
1701792825953788700,6.25278857421875,0.47943115234375,0.2049102783203125,0.3823699951171875
1701792825963741700,6.26274169921875,0.4684906005859375,0.1680755615234375,0.3896942138671875
1701792825973695700,6.27269580078125,0.4564056396484375,0.1338348388671875,0.413818359375
1701792825983648800,6.282648681640625,0.4289703369140625,0.1231536865234375,0.445892333984375
1701792825993601800,6.292601806640625,0.377532958984375,0.1387176513671875,0.4552154541015625
1701792826003554600,6.302554443359375,0.321014404296875,0.1600341796875,0.433349609375
1701792826013507600,6.312507568359375,0.2437286376953125,0.1697845458984375,0.4245147705078125
1701792826023460600,6.322460693359375,0.155029296875,0.1766815185546875,0.4380645751953125
1701792826033414700,6.33241455078125,0.0767974853515625,0.18316650390625,0.4506378173828125
1701792826043367700,6.34236767578125,0.0321044921875,0.198699951171875,0.462371826171875
1701792826053320700,6.35232080078125,0.0328521728515625,0.2165679931640625,0.4887847900390625
1701792826063273700,6.362273681640625,0.063446044921875,0.2368621826171875,0.5239410400390625
1701792826073226800,6.372226806640625,0.097076416015625,0.2639617919921875,0.5556488037109375
1701792826083180500,6.3821806640625,0.109283447265625,0.269927978515625,0.62567138671875
1701792826093133600,6.392133544921875,0.115997314453125,0.2531890869140625,0.750152587890625
1701792826103086600,6.402086669921875,0.127777099609375,0.22955322265625,0.8845977783203125
1701792826113039600,6.41203955078125,0.150909423828125,0.2173919677734375,0.965484619140625
1701792826122992600,6.42199267578125,0.17120361328125,0.224517822265625,1.00225830078125
1701792826132945700,6.431945556640625,0.1867828369140625,0.27850341796875,1.0145416259765625
1701792826142899700,6.441899658203125,0.1826324462890625,0.3809967041015625,0.972686767578125
1701792826152852700,6.451852783203125,0.12689208984375,0.5003662109375,0.9464874267578125
1701792826162805800,6.4618056640625,0.045928955078125,0.621063232421875,0.939697265625
1701792826172758500,6.471758544921875,-0.02740478515625,0.764892578125,0.9828338623046875
1701792826182711600,6.481711669921875,-0.0908660888671875,0.923126220703125,1.10845947265625
1701792826192665900,6.491665771484375,-0.1087188720703125,1.1161651611328125,1.295745849609375
1701792826202618600,6.50161865234375,-0.1047210693359375,1.3641510009765625,1.5111846923828125
1701792826212571600,6.511571533203125,-0.0664825439453125,1.5930938720703125,1.6584930419921875
1701792826222524700,6.521524658203125,0.013763427734375,1.7274169921875,1.7129058837890625
1701792826232477700,6.531477783203125,0.082275390625,1.7733154296875,1.7865142822265625
1701792826242431700,6.541431640625,0.084625244140625,1.86114501953125,1.9349517822265625
1701792826252384800,6.551384765625,-0.016876220703125,2.0346527099609375,2.0487213134765625
1701792826262337800,6.561337890625,-0.27239990234375,2.316009521484375,2.0830078125
1701792826272290800,6.571290771484375,-0.5503997802734375,2.5778961181640625,1.949951171875
1701792826282243800,6.581243896484375,-0.804931640625,2.674407958984375,1.75592041015625
1701792826292196900,6.59119677734375,-1.0636444091796875,2.63006591796875,1.5500640869140625
1701792826302150700,6.601150634765625,-1.239166259765625,2.4749603271484375,1.3004608154296875
1701792826312103700,6.611103759765625,-1.249664306640625,2.289154052734375,1.0203857421875
1701792826322056700,6.621056640625,-1.12353515625,2.11517333984375,0.7609710693359375
1701792826332009700,6.631009765625,-0.9957122802734375,1.96588134765625,0.5862579345703125
1701792826341962800,6.640962646484375,-0.954071044921875,1.828338623046875,0.438568115234375
1701792826351916800,6.650916748046875,-0.994873046875,1.715423583984375,0.363677978515625
1701792826361869800,6.660869873046875,-1.0558929443359375,1.6318817138671875,0.3512115478515625
1701792826371822600,6.670822509765625,-1.086639404296875,1.535430908203125,0.339141845703125
1701792826381775600,6.680775634765625,-1.1077117919921875,1.4495086669921875,0.34619140625
1701792826391728600,6.690728759765625,-1.11578369140625,1.378936767578125,0.3828582763671875
1701792826401681700,6.700681640625,-1.1081390380859375,1.3114013671875,0.447052001953125
1701792826411635700,6.7106357421875,-1.0628509521484375,1.2470550537109375,0.559661865234375
1701792826421588700,6.720588623046875,-0.936126708984375,1.2032012939453125,0.7035675048828125
1701792826431541800,6.730541748046875,-0.7517547607421875,1.187225341796875,0.8498077392578125
1701792826441494800,6.740494873046875,-0.5730743408203125,1.1713714599609375,0.9550323486328125
1701792826451447800,6.75044775390625,-0.4781494140625,1.1639556884765625,1.0312042236328125
1701792826461401600,6.760401611328125,-0.3543701171875,1.127960205078125,1.1094818115234375
1701792826471354600,6.770354736328125,-0.24017333984375,1.127960205078125,1.2351837158203125
1701792826481307600,6.7803076171875,-0.251861572265625,1.1482391357421875,1.3576507568359375
1701792826491260700,6.7902607421875,-0.2786102294921875,1.1240234375,1.43408203125
1701792826501213700,6.800213623046875,-0.3210906982421875,1.13287353515625,1.4976654052734375
1701792826511167700,6.810167724609375,-0.3589019775390625,1.1439666748046875,1.5833282470703125
1701792826521120800,6.820120849609375,-0.3936767578125,1.133148193359375,1.693939208984375
1701792826531073800,6.83007373046875,-0.4503631591796875,1.0695953369140625,1.79034423828125
1701792826541026600,6.840026611328125,-0.5318756103515625,0.9734649658203125,1.8123779296875
1701792826550979600,6.8499794921875,-0.614288330078125,0.9023284912109375,1.8205718994140625
1701792826560932600,6.8599326171875,-0.6854248046875,0.8469390869140625,1.7550201416015625
1701792826570886700,6.86988671875,-0.736358642578125,0.8250885009765625,1.6443634033203125
1701792826580839700,6.879839599609375,-0.7800445556640625,0.8322601318359375,1.50970458984375
1701792826590792700,6.889792724609375,-0.8482513427734375,0.82501220703125,1.359771728515625
1701792826600745700,6.899745849609375,-0.916107177734375,0.80096435546875,1.23272705078125
1701792826610698800,6.90969873046875,-0.9734954833984375,0.7918701171875,1.1287689208984375
1701792826620652800,6.91965283203125,-1.0270843505859375,0.7436981201171875,1.0469207763671875
1701792826630605800,6.929605712890625,-1.0704345703125,0.66015625,1.004058837890625
1701792826640558600,6.93955859375,-1.0977935791015625,0.6099700927734375,1.061370849609375
1701792826650511600,6.94951171875,-1.098785400390625,0.6015167236328125,1.2206878662109375
1701792826660464600,6.959464599609375,-1.0802001953125,0.5783538818359375,1.4158477783203125
1701792826670418700,6.969418701171875,-1.046112060546875,0.5274658203125,1.6067962646484375
1701792826680371700,6.979371826171875,-0.9769134521484375,0.393218994140625,1.6756439208984375
1701792826690324700,6.98932470703125,-0.8878936767578125,0.2195892333984375,1.6236114501953125
1701792826700277800,6.99927783203125,-0.820037841796875,0.10272216796875,1.550872802734375
1701792826710230500,7.00923046875,-0.7698822021484375,0.040069580078125,1.515960693359375
1701792826720183600,7.01918359375,-0.7189788818359375,-0.004638671875,1.482177734375
1701792826730137600,7.0291376953125,-0.666473388671875,-0.0141143798828125,1.4468536376953125
1701792826740090600,7.039090576171875,-0.626556396484375,0.034698486328125,1.4302825927734375
1701792826750043600,7.049043701171875,-0.5877532958984375,0.129241943359375,1.4343109130859375
1701792826759996700,7.05899658203125,-0.532562255859375,0.2357177734375,1.45611572265625
1701792826769949700,7.06894970703125,-0.487945556640625,0.341583251953125,1.4800567626953125
1701792826779903700,7.07890380859375,-0.448944091796875,0.4374237060546875,1.4760284423828125
1701792826789856800,7.088856689453125,-0.4101409912109375,0.5166473388671875,1.45184326171875
1701792826799809800,7.098809814453125,-0.376983642578125,0.589324951171875,1.421142578125
1701792826809762800,7.1087626953125,-0.3487091064453125,0.6558380126953125,1.3886260986328125
1701792826819715800,7.1187158203125,-0.3346099853515625,0.712738037109375,1.3501739501953125
1701792826829669600,7.128669677734375,-0.3173065185546875,0.7468109130859375,1.3230743408203125
1701792826839622700,7.13862255859375,-0.330352783203125,0.7773590087890625,1.270263671875
1701792826849575700,7.14857568359375,-0.321807861328125,0.79119873046875,1.2278289794921875
1701792826859528700,7.15852880859375,-0.303558349609375,0.7977294921875,1.1765594482421875
1701792826869481700,7.168481689453125,-0.303192138671875,0.793304443359375,1.1115875244140625
1701792826879434800,7.178434814453125,-0.3142547607421875,0.7714996337890625,1.05975341796875
1701792826889388800,7.188388916015625,-0.325469970703125,0.764984130859375,1.0362091064453125
1701792826899341800,7.198341796875,-0.3226470947265625,0.76348876953125,1.0045928955078125
1701792826909294800,7.208294921875,-0.3131103515625,0.7689666748046875,0.9647064208984375
1701792826919248000,7.218247802734375,-0.3123931884765625,0.7779998779296875,0.9629364013671875
1701792826929201000,7.228200927734375,-0.3073883056640625,0.785491943359375,0.962982177734375
1701792826939155000,7.238155029296875,-0.29638671875,0.8001251220703125,0.9456787109375
1701792826949108000,7.24810791015625,-0.3070220947265625,0.8138427734375,0.93231201171875
1701792826959061000,7.25806103515625,-0.305908203125,0.8291473388671875,0.914398193359375
1701792826969014000,7.268013916015625,-0.2850799560546875,0.844146728515625,0.8970184326171875
1701792826978967000,7.277967041015625,-0.2564697265625,0.846893310546875,0.880950927734375
1701792826988920000,7.287920166015625,-0.23406982421875,0.842041015625,0.8736572265625
1701792826998873900,7.297873779296875,-0.2131195068359375,0.842742919921875,0.878173828125
1701792827008827000,7.307826904296875,-0.189300537109375,0.8482513427734375,0.8838653564453125
1701792827018779600,7.317779541015625,-0.166015625,0.8460235595703125,0.892791748046875
1701792827028732700,7.327732666015625,-0.1461944580078125,0.84259033203125,0.8957977294921875
1701792827038685700,7.337685791015625,-0.131927490234375,0.8412933349609375,0.884033203125
1701792827048639700,7.3476396484375,-0.123809814453125,0.8367919921875,0.8673095703125
1701792827058592800,7.3575927734375,-0.1265869140625,0.83660888671875,0.86480712890625
1701792827068545800,7.3675458984375,-0.1240997314453125,0.8480987548828125,0.87493896484375
1701792827078498800,7.377498779296875,-0.1055450439453125,0.8766632080078125,0.894500732421875
1701792827088451800,7.387451904296875,-0.08209228515625,0.895660400390625,0.9134521484375
1701792827098406000,7.397406005859375,-0.054779052734375,0.8696441650390625,0.8881072998046875
1701792827108359000,7.40735888671875,-0.0272369384765625,0.813201904296875,0.8482208251953125
1701792827118312000,7.41731201171875,0.0045623779296875,0.7823638916015625,0.84368896484375
1701792827128265000,7.427264892578125,0.0406341552734375,0.7881011962890625,0.8658599853515625
1701792827138218000,7.437218017578125,0.0647430419921875,0.80926513671875,0.9185333251953125
1701792827148171000,7.4471708984375,0.0692291259765625,0.8445281982421875,0.98272705078125
1701792827158124800,7.457124755859375,0.0520782470703125,0.878082275390625,1.022491455078125
1701792827168077800,7.467077880859375,0.0221710205078125,0.908721923828125,1.0597076416015625
1701792827178030800,7.47703076171875,0.000823974609375,0.9555206298828125,1.1092681884765625
1701792827187984000,7.48698388671875,0.02130126953125,0.9464263916015625,1.04974365234375
1701792827197937000,7.49693701171875,0.0970916748046875,0.91021728515625,0.9976806640625
1701792827207890700,7.506890625,0.177886962890625,0.913848876953125,0.983367919921875
1701792827217843700,7.51684375,0.2324371337890625,0.949554443359375,0.9521942138671875
1701792827227796700,7.526796630859375,0.2711639404296875,1.0155181884765625,0.917266845703125
1701792827237749800,7.536749755859375,0.290252685546875,1.0836944580078125,0.8622283935546875
1701792827247702800,7.546702880859375,0.301361083984375,1.120513916015625,0.7774200439453125
1701792827257655800,7.55665576171875,0.3061065673828125,1.127166748046875,0.6582794189453125
1701792827267609900,7.56660986328125,0.3062896728515625,1.0997161865234375,0.53790283203125
1701792827277563000,7.57656298828125,0.300262451171875,1.0512237548828125,0.411346435546875
1701792827287516000,7.586515869140625,0.2744598388671875,0.9921722412109375,0.296600341796875
1701792827297469000,7.596468994140625,0.2129669189453125,0.925445556640625,0.205322265625
1701792827307422000,7.606421875,0.1303253173828125,0.850921630859375,0.1507415771484375
1701792827317376000,7.6163759765625,0.0446014404296875,0.7764434814453125,0.16094970703125
1701792827327329000,7.6263291015625,-0.0198822021484375,0.7273101806640625,0.2417449951171875
1701792827337282000,7.636281982421875,-0.0379180908203125,0.71942138671875,0.3911590576171875
1701792827347235000,7.646235107421875,-0.021270751953125,0.7213287353515625,0.5639495849609375
1701792827357187800,7.656187744140625,-0.01214599609375,0.722442626953125,0.6841888427734375
1701792827367140900,7.666140869140625,0.003997802734375,0.734130859375,0.75909423828125
1701792827377095000,7.676094970703125,0.0462188720703125,0.7597503662109375,0.8032989501953125
1701792827387047700,7.686047607421875,0.089996337890625,0.7901611328125,0.8230133056640625
1701792827397000700,7.696000732421875,0.1320343017578125,0.8199005126953125,0.818756103515625
1701792827406953700,7.70595361328125,0.16326904296875,0.8285980224609375,0.7902984619140625
1701792827416906800,7.71590673828125,0.1748046875,0.8132476806640625,0.77716064453125
1701792827426860800,7.72586083984375,0.158721923828125,0.7897796630859375,0.799041748046875
1701792827436813800,7.735813720703125,0.0947723388671875,0.7613525390625,0.846527099609375
1701792827446766800,7.745766845703125,0.013641357421875,0.7210540771484375,0.8892822265625
1701792827456720000,7.755719970703125,-0.0430145263671875,0.6642913818359375,0.902740478515625
1701792827466673000,7.7656728515625,-0.084869384765625,0.6155242919921875,0.9113616943359375
1701792827476626000,7.7756259765625,-0.108642578125,0.580718994140625,0.9150543212890625
1701792827486580000,7.785580078125,-0.1170196533203125,0.54541015625,0.8922576904296875
1701792827496533000,7.795532958984375,-0.0948028564453125,0.4859466552734375,0.872955322265625
1701792827506486000,7.805486083984375,-0.0377655029296875,0.4116668701171875,0.8767852783203125
1701792827516439000,7.81543896484375,0.0180511474609375,0.3526153564453125,0.9061431884765625
1701792827526392000,7.82539208984375,0.052886962890625,0.3152313232421875,0.9628143310546875
1701792827536345900,7.835345947265625,0.0340423583984375,0.2894744873046875,1.0233612060546875
1701792827546299000,7.845298828125,-0.031646728515625,0.2697601318359375,1.0587615966796875
1701792827556251600,7.855251708984375,-0.1147003173828125,0.235992431640625,1.053558349609375
1701792827566204700,7.86520458984375,-0.1721038818359375,0.171417236328125,1.05120849609375
1701792827576157700,7.87515771484375,-0.2022857666015625,0.096588134765625,1.09375
1701792827586110700,7.88511083984375,-0.23486328125,0.024749755859375,1.183319091796875
1701792827596064800,7.895064697265625,-0.292510986328125,-0.0498046875,1.280792236328125
1701792827606017800,7.905017822265625,-0.4220428466796875,-0.1112060546875,1.3503570556640625
1701792827615970800,7.914970703125,-0.6553955078125,-0.13775634765625,1.3843231201171875
1701792827625923800,7.924923828125,-0.897491455078125,-0.1471099853515625,1.3797149658203125
1701792827635876900,7.934876953125,-1.057861328125,-0.1742401123046875,1.3675537109375
1701792827645831000,7.944830810546875,-1.1289825439453125,-0.2212066650390625,1.360321044921875
1701792827655784000,7.954783935546875,-1.1531219482421875,-0.2536468505859375,1.3355712890625
1701792827665737000,7.964737060546875,-1.200439453125,-0.2706756591796875,1.290191650390625
1701792827675690000,7.97468994140625,-1.31353759765625,-0.2771148681640625,1.253814697265625
1701792827685643000,7.98464306640625,-1.4407501220703125,-0.2623748779296875,1.2384033203125
1701792827695596000,7.994595947265625,-1.50677490234375,-0.246429443359375,1.2432098388671875
1701792827705550000,8.004550048828126,-1.5195770263671875,-0.237945556640625,1.2632904052734375
1701792827715503000,8.014503173828125,-1.4758148193359375,-0.257659912109375,1.28472900390625
1701792827725456000,8.024455810546876,-1.36663818359375,-0.282470703125,1.313262939453125
1701792827735409000,8.034408935546875,-1.27362060546875,-0.2855987548828125,1.3431854248046875
1701792827745362000,8.04436181640625,-1.240966796875,-0.259124755859375,1.35736083984375
1701792827755315700,8.054315673828125,-1.2453765869140625,-0.2197418212890625,1.3476409912109375
1701792827765268700,8.064268798828126,-1.2691650390625,-0.1512451171875,1.3254547119140625
1701792827775221800,8.0742216796875,-1.262908935546875,-0.0873260498046875,1.29180908203125
1701792827785174800,8.0841748046875,-1.2245330810546875,-0.0458831787109375,1.249267578125
1701792827795127800,8.0941279296875,-1.2120819091796875,-0.0132293701171875,1.1870574951171875
1701792827805080800,8.104080810546876,-1.2197418212890625,0.0230712890625,1.149871826171875
1701792827815035000,8.114034912109375,-1.262298583984375,0.0711669921875,1.1390838623046875
1701792827824988000,8.12398779296875,-1.316741943359375,0.110748291015625,1.11187744140625
1701792827834941000,8.13394091796875,-1.3702392578125,0.1390228271484375,1.0577545166015625
1701792827844894000,8.14389404296875,-1.4122314453125,0.1804046630859375,1.0054473876953125
1701792827854847000,8.153846923828125,-1.4301605224609375,0.21771240234375,0.946624755859375
1701792827864800000,8.163800048828126,-1.43084716796875,0.2209320068359375,0.9207611083984375
1701792827874754000,8.173754150390625,-1.4081573486328125,0.2152862548828125,0.90350341796875
1701792827884706600,8.18370654296875,-1.35382080078125,0.22967529296875,0.8604278564453125
1701792827894659600,8.19365966796875,-1.3007965087890625,0.271453857421875,0.81878662109375
1701792827904612600,8.203612548828126,-1.256011962890625,0.3187255859375,0.7754974365234375
1701792827914565600,8.213565673828125,-1.1800079345703125,0.36932373046875,0.727386474609375
1701792827924519400,8.22351953125,-1.0702972412109375,0.4122772216796875,0.68359375
1701792827934472400,8.233472412109375,-0.9631195068359375,0.4393310546875,0.6753082275390625
1701792827944425500,8.243425537109376,-0.851654052734375,0.4380645751953125,0.6923828125
1701792827954378500,8.25337841796875,-0.7231292724609375,0.41192626953125,0.6873626708984375
1701792827964331300,8.263331298828126,-0.6245574951171875,0.39080810546875,0.648895263671875
1701792827974284300,8.2732841796875,-0.573150634765625,0.3714141845703125,0.57196044921875
1701792827984238300,8.28323828125,-0.5498504638671875,0.3697967529296875,0.4705047607421875
1701792827994191400,8.29319140625,-0.54168701171875,0.3844757080078125,0.371795654296875
1701792828004144400,8.303144287109374,-0.5238037109375,0.38214111328125,0.30694580078125
1701792828014097400,8.313097412109375,-0.48876953125,0.354339599609375,0.280487060546875
1701792828024050400,8.323050537109374,-0.4490814208984375,0.3047332763671875,0.29254150390625
1701792828034003500,8.33300341796875,-0.437286376953125,0.236114501953125,0.32940673828125
1701792828043957500,8.34295751953125,-0.4486541748046875,0.173431396484375,0.355224609375
1701792828053910500,8.35291064453125,-0.4676513671875,0.1254425048828125,0.3506622314453125
1701792828063863600,8.362863525390624,-0.50994873046875,0.0848846435546875,0.32037353515625
1701792828073816600,8.372816650390625,-0.584747314453125,0.0629425048828125,0.2760162353515625
1701792828083769600,8.38276953125,-0.6763916015625,0.0518951416015625,0.2454986572265625
1701792828093723600,8.3927236328125,-0.7552642822265625,0.0585784912109375,0.24298095703125
1701792828103676700,8.4026767578125,-0.78948974609375,0.0718231201171875,0.2671356201171875
1701792828113629700,8.412629638671875,-0.783599853515625,0.0845794677734375,0.32305908203125
1701792828123582700,8.422582763671874,-0.7773590087890625,0.0688934326171875,0.352813720703125
1701792828133535500,8.432535400390625,-0.7576141357421875,0.013824462890625,0.343780517578125
1701792828143488500,8.442488525390624,-0.71551513671875,-0.035003662109375,0.3177032470703125
1701792828153442300,8.4524423828125,-0.66796875,-0.0693359375,0.2850341796875
1701792828163395300,8.462395263671874,-0.6357421875,-0.101318359375,0.2557525634765625
1701792828173348400,8.472348388671875,-0.62579345703125,-0.143341064453125,0.238037109375
1701792828183301400,8.48230126953125,-0.620361328125,-0.1947174072265625,0.2283477783203125
1701792828193254400,8.49225439453125,-0.5878143310546875,-0.2479095458984375,0.222137451171875
1701792828203207400,8.50220751953125,-0.51837158203125,-0.285614013671875,0.2150421142578125
1701792828213161500,8.512161376953125,-0.4587249755859375,-0.327850341796875,0.214813232421875
1701792828223114500,8.522114501953125,-0.4290771484375,-0.372528076171875,0.2140655517578125
1701792828233067500,8.532067626953125,-0.4344940185546875,-0.3918304443359375,0.2080841064453125
1701792828243020500,8.5420205078125,-0.4799346923828125,-0.386627197265625,0.192535400390625
1701792828252973600,8.5519736328125,-0.5592803955078125,-0.3732757568359375,0.166961669921875
1701792828262927600,8.561927734375,-0.6424102783203125,-0.37408447265625,0.140167236328125
1701792828272880600,8.571880615234376,-0.7088165283203125,-0.396759033203125,0.10614013671875
1701792828282833700,8.581833740234375,-0.7346649169921875,-0.4342498779296875,0.0812835693359375
1701792828292786700,8.59178662109375,-0.731231689453125,-0.46282958984375,0.079559326171875
1701792828302739500,8.601739501953125,-0.723876953125,-0.465118408203125,0.1097259521484375
1701792828312692500,8.6116923828125,-0.718841552734375,-0.4557952880859375,0.1336822509765625
1701792828322646300,8.621646240234375,-0.7334136962890625,-0.4583587646484375,0.1736907958984375
1701792828332599300,8.631599365234376,-0.765533447265625,-0.460906982421875,0.203521728515625
1701792828342552300,8.64155224609375,-0.819793701171875,-0.4659271240234375,0.224884033203125
1701792828352505300,8.65150537109375,-0.874298095703125,-0.4796600341796875,0.2038726806640625
1701792828362458400,8.661458251953125,-0.8752288818359375,-0.5234375,0.1468353271484375
1701792828372411400,8.671411376953126,-0.8272705078125,-0.5781097412109375,0.1158599853515625
1701792828382365400,8.681365478515625,-0.762420654296875,-0.5965728759765625,0.121734619140625
1701792828392318500,8.691318359375,-0.712615966796875,-0.57366943359375,0.1644134521484375
1701792828402271500,8.701271484375,-0.717376708984375,-0.551544189453125,0.213531494140625
1701792828412224500,8.711224609375,-0.761077880859375,-0.523956298828125,0.2352142333984375
1701792828422177500,8.721177490234375,-0.817718505859375,-0.4947967529296875,0.2505950927734375
1701792828432131600,8.731131591796874,-0.876861572265625,-0.474029541015625,0.253570556640625
1701792828442084600,8.741084716796875,-0.91558837890625,-0.456451416015625,0.2532196044921875
1701792828452037600,8.75103759765625,-0.90118408203125,-0.4511566162109375,0.2592620849609375
1701792828461990700,8.76099072265625,-0.8653106689453125,-0.44903564453125,0.26123046875
1701792828471943400,8.770943359375,-0.81451416015625,-0.4198760986328125,0.241180419921875
1701792828481896400,8.780896484375,-0.7974853515625,-0.367431640625,0.2194061279296875
1701792828491850500,8.7908505859375,-0.78680419921875,-0.31591796875,0.1749267578125
1701792828501803500,8.800803466796875,-0.7734222412109375,-0.2810211181640625,0.125640869140625
1701792828511756500,8.810756591796874,-0.7674560546875,-0.2608795166015625,0.1024322509765625
1701792828521709600,8.82070947265625,-0.72540283203125,-0.233428955078125,0.1042327880859375
1701792828531662600,8.83066259765625,-0.6666107177734375,-0.2191009521484375,0.128143310546875
1701792828541615400,8.840615478515625,-0.621429443359375,-0.213409423828125,0.1681060791015625
1701792828551569400,8.8505693359375,-0.651092529296875,-0.188629150390625,0.19451904296875
1701792828561522400,8.8605224609375,-0.742523193359375,-0.2045440673828125,0.1656646728515625
1701792828571475500,8.870475341796874,-0.9667510986328125,-0.2553558349609375,0.1238861083984375
1701792828581428500,8.880428466796875,-1.2399749755859375,-0.2802276611328125,0.1163330078125
1701792828591381500,8.890381591796874,-1.378997802734375,-0.2838134765625,0.0882110595703125
1701792828601335600,8.90033544921875,-1.454925537109375,-0.2733306884765625,0.0565948486328125
1701792828611288600,8.91028857421875,-1.4020538330078125,-0.2250823974609375,0.0098419189453125
1701792828621241600,8.92024169921875,-1.3448944091796875,-0.096649169921875,0.023712158203125
1701792828631194600,8.930194580078124,-1.3628997802734375,0.1967926025390625,0.2063446044921875
1701792828641147400,8.9401474609375,-1.1384124755859375,0.1678009033203125,0.259185791015625
1701792828651100400,8.950100341796874,-1.0266876220703125,-0.0855560302734375,0.1357269287109375
1701792828661054500,8.960054443359375,-1.0758209228515625,-0.0192413330078125,0.1273956298828125
1701792828671007500,8.970007568359375,-1.154754638671875,0.0980987548828125,0.196563720703125
1701792828680960500,8.97996044921875,-1.166259765625,0.101409912109375,0.2415008544921875
1701792828690913500,8.98991357421875,-1.1244354248046875,0.017333984375,0.1988983154296875
1701792828700866600,8.999866455078125,-1.0931549072265625,-0.017425537109375,0.1512908935546875
1701792828710819600,9.009819580078124,-1.0405120849609375,-0.0319671630859375,0.14410400390625
1701792828720773400,9.0197734375,-0.9605255126953125,-0.08355712890625,0.159576416015625
1701792828730726400,9.029726318359375,-0.8950347900390625,-0.1712799072265625,0.1585235595703125
1701792828740679400,9.039679443359375,-0.90985107421875,-0.2405853271484375,0.1826019287109375
1701792828750632400,9.049632568359375,-0.9665985107421875,-0.25543212890625,0.2224273681640625
1701792828760585500,9.05958544921875,-1.0039520263671875,-0.232330322265625,0.2360076904296875
1701792828770538500,9.06953857421875,-1.01837158203125,-0.214385986328125,0.2273712158203125
1701792828780492500,9.079492431640626,-1.0514984130859375,-0.264495849609375,0.18304443359375
1701792828790445600,9.089445556640625,-1.0815582275390625,-0.29644775390625,0.1330413818359375
1701792828800398600,9.099398681640626,-1.072174072265625,-0.2668609619140625,0.098388671875
1701792828810351400,9.109351318359375,-1.001708984375,-0.2323760986328125,0.0843505859375
1701792828820304400,9.119304443359376,-0.88958740234375,-0.2278594970703125,0.082489013671875
1701792828830257400,9.12925732421875,-0.78558349609375,-0.2545166015625,0.0582427978515625
1701792828840211500,9.13921142578125,-0.7629241943359375,-0.3099212646484375,0.0265350341796875
1701792828850164500,9.14916455078125,-0.78887939453125,-0.3602294921875,0.0034637451171875
1701792828860117500,9.159117431640626,-0.85382080078125,-0.3877716064453125,0.0101470947265625
1701792828870070500,9.169070556640625,-0.9261322021484375,-0.3918304443359375,0.02923583984375
1701792828880024000,9.179024169921876,-0.998321533203125,-0.3758087158203125,0.0446319580078125
1701792828889977900,9.188977783203125,-1.0616607666015625,-0.3286895751953125,0.062744140625
1701792828899931000,9.198930908203126,-1.0868988037109375,-0.2803192138671875,0.055816650390625
1701792828909884000,9.2088837890625,-1.1037139892578125,-0.260406494140625,0.0540008544921875
1701792828919837000,9.2188369140625,-1.1287841796875,-0.253387451171875,0.0754241943359375
1701792828929790000,9.2287900390625,-1.153656005859375,-0.25433349609375,0.0831451416015625
1701792828939743000,9.238742919921876,-1.179718017578125,-0.253570556640625,0.07147216796875
1701792828949697000,9.248697021484375,-1.1918182373046875,-0.2468414306640625,0.020538330078125
1701792828959650000,9.258650146484374,-1.1573333740234375,-0.2349090576171875,-0.0519866943359375
1701792828969603000,9.26860302734375,-1.1173248291015625,-0.2214508056640625,-0.1269073486328125
1701792828979555800,9.278555908203124,-1.08172607421875,-0.2010955810546875,-0.1825408935546875
1701792828989508900,9.2885087890625,-1.05902099609375,-0.1761627197265625,-0.1754913330078125
1701792828999462000,9.2984619140625,-1.073150634765625,-0.1666412353515625,-0.1540374755859375
1701792829009416000,9.308416015625,-1.0956878662109375,-0.17474365234375,-0.117919921875
1701792829019369000,9.318368896484374,-1.1246795654296875,-0.1786956787109375,-0.06719970703125
1701792829029322000,9.328322021484375,-1.1234130859375,-0.1855010986328125,-0.0348968505859375
1701792829039275000,9.33827490234375,-1.0720672607421875,-0.208892822265625,-0.0178070068359375
1701792829049228000,9.34822802734375,-1.010528564453125,-0.21484375,-0.018768310546875
1701792829059181000,9.35818115234375,-0.981719970703125,-0.2166290283203125,-0.036956787109375
1701792829069134800,9.368134765625,-0.98065185546875,-0.220794677734375,-0.0327301025390625
1701792829079087900,9.378087890625,-0.985382080078125,-0.23101806640625,-0.032562255859375
1701792829089041000,9.388041015625,-0.9652252197265625,-0.2575225830078125,-0.015289306640625
1701792829098994000,9.397993896484374,-0.9214935302734375,-0.2800445556640625,0.0301666259765625
1701792829108947000,9.407947021484375,-0.9266815185546875,-0.2923431396484375,0.0629119873046875
1701792829118901000,9.41790087890625,-0.9775238037109375,-0.29608154296875,0.0746307373046875
1701792829128854000,9.42785400390625,-0.9669189453125,-0.315673828125,0.032073974609375
1701792829138807000,9.43780712890625,-0.9443206787109375,-0.302154541015625,0.019439697265625
1701792829148759800,9.447759765625,-0.9227294921875,-0.3007965087890625,0.0251312255859375
1701792829158712800,9.457712890625,-0.8740234375,-0.298248291015625,0.0487213134765625
1701792829168665900,9.467665771484375,-0.841094970703125,-0.2862701416015625,0.084442138671875
1701792829178620000,9.477619873046875,-0.8751678466796875,-0.26995849609375,0.120635986328125
1701792829188573000,9.487572998046875,-0.9439697265625,-0.263671875,0.1157989501953125
1701792829198526000,9.49752587890625,-0.9939727783203125,-0.245025634765625,0.1019134521484375
1701792829208479000,9.50747900390625,-1.035400390625,-0.205108642578125,0.11822509765625
1701792829218432000,9.517431884765625,-1.06292724609375,-0.20172119140625,0.1122589111328125
1701792829228385000,9.527385009765625,-1.0435943603515625,-0.212860107421875,0.0876007080078125
1701792829238339000,9.537339111328125,-1.0013885498046875,-0.2281951904296875,0.08172607421875
1701792829248292000,9.5472919921875,-0.927154541015625,-0.2525177001953125,0.09722900390625
1701792829258244900,9.557244873046875,-0.8417510986328125,-0.2862091064453125,0.1256256103515625
1701792829268198000,9.567197998046876,-0.774749755859375,-0.3256378173828125,0.136566162109375
1701792829278151000,9.57715087890625,-0.72509765625,-0.345458984375,0.1219482421875
1701792829288104000,9.58710400390625,-0.6930694580078125,-0.3529510498046875,0.0969390869140625
1701792829298058000,9.59705810546875,-0.67572021484375,-0.3661346435546875,0.0839691162109375
1701792829308011000,9.607010986328126,-0.6602630615234375,-0.38250732421875,0.078094482421875
1701792829317963800,9.6169638671875,-0.6619110107421875,-0.3958282470703125,0.058837890625
1701792829327916800,9.626916748046876,-0.681610107421875,-0.3826751708984375,0.0275726318359375
1701792829337869800,9.636869873046875,-0.731414794921875,-0.363739013671875,0.005035400390625
1701792829347822800,9.64682275390625,-0.7983551025390625,-0.36553955078125,0.0093841552734375
1701792829357777000,9.65677685546875,-0.8636932373046875,-0.3790435791015625,0.0353851318359375
1701792829367730000,9.66672998046875,-0.9048004150390625,-0.39617919921875,0.060028076171875
1701792829377683000,9.676682861328125,-0.8986053466796875,-0.4190521240234375,0.07281494140625
1701792829387636000,9.686635986328126,-0.8693084716796875,-0.445098876953125,0.0673675537109375
1701792829397589000,9.696589111328125,-0.8365020751953125,-0.460205078125,0.0651702880859375
1701792829407543000,9.70654296875,-0.8292388916015625,-0.463958740234375,0.06597900390625
1701792829417496000,9.71649609375,-0.8560638427734375,-0.46392822265625,0.0543975830078125
1701792829427449000,9.726448974609376,-0.9064788818359375,-0.471588134765625,0.0415802001953125
1701792829437402000,9.736402099609375,-0.9425811767578125,-0.4756927490234375,0.0283660888671875
1701792829447355100,9.746355224609376,-0.9407958984375,-0.4728240966796875,0.022308349609375
1701792829457308200,9.75630810546875,-0.908782958984375,-0.471466064453125,0.0124053955078125
1701792829467262000,9.766261962890624,-0.859161376953125,-0.486785888671875,0.0102386474609375
1701792829477215000,9.776215087890625,-0.804168701171875,-0.5054473876953125,0.048492431640625
1701792829487167700,9.786167724609374,-0.8286285400390625,-0.5046539306640625,0.0903167724609375
1701792829497120800,9.796120849609375,-0.9352264404296875,-0.4873199462890625,0.0945281982421875
1701792829507073800,9.80607373046875,-1.03924560546875,-0.4747161865234375,0.0781402587890625
1701792829517026800,9.81602685546875,-1.0726165771484375,-0.4683380126953125,0.0537109375
1701792829526980900,9.82598095703125,-1.0476531982421875,-0.4662933349609375,0.019683837890625
1701792829536934000,9.835933837890625,-0.9939422607421875,-0.4763336181640625,-0.0195465087890625
1701792829546887000,9.845886962890624,-0.9385833740234375,-0.489959716796875,-0.0399322509765625
1701792829556840000,9.85583984375,-0.837738037109375,-0.525421142578125,-0.0792694091796875
1701792829566793000,9.86579296875,-0.72906494140625,-0.5387725830078125,-0.0827789306640625
1701792829576746000,9.87574609375,-0.697113037109375,-0.523681640625,-0.038726806640625
1701792829586700000,9.885699951171874,-0.7157135009765625,-0.522613525390625,-0.00677490234375
1701792829596653000,9.895653076171875,-0.79766845703125,-0.511138916015625,0.036285400390625
1701792829606606000,9.905606201171874,-0.8949432373046875,-0.4973297119140625,0.060699462890625
1701792829616559000,9.91555908203125,-0.99188232421875,-0.48126220703125,0.0769195556640625
1701792829626512100,9.92551220703125,-1.05511474609375,-0.4574737548828125,0.1015167236328125
1701792829636465000,9.93546484375,-1.0606231689453125,-0.422393798828125,0.1312255859375
1701792829646419000,9.9454189453125,-1.0621185302734375,-0.4266204833984375,0.1690673828125
1701792829656371700,9.955371826171875,-1.0714263916015625,-0.4256591796875,0.2089691162109375
1701792829666324700,9.96532470703125,-1.08477783203125,-0.44085693359375,0.219451904296875
1701792829676277800,9.97527783203125,-1.078125,-0.4458160400390625,0.2131500244140625
1701792829686230800,9.985230712890624,-1.0454864501953125,-0.435577392578125,0.1911163330078125
1701792829696183800,9.995183837890625,-0.986663818359375,-0.430816650390625,0.1583099365234375
1701792829706137900,10.005137939453125,-0.9227142333984375,-0.4243316650390625,0.1399383544921875
1701792829716091000,10.0150908203125,-0.88055419921875,-0.422637939453125,0.130340576171875
1701792829726044000,10.0250439453125,-0.8512725830078125,-0.42022705078125,0.1121826171875
1701792829735997000,10.034996826171875,-0.8473052978515625,-0.4157867431640625,0.110260009765625
1701792829745950000,10.044949951171875,-0.861724853515625,-0.4161834716796875,0.112548828125
1701792829755904000,10.054904052734376,-0.88720703125,-0.423004150390625,0.1116485595703125
1701792829765857000,10.06485693359375,-0.9151153564453125,-0.4164581298828125,0.130615234375
1701792829775810000,10.07481005859375,-0.9407958984375,-0.4099273681640625,0.1673431396484375
1701792829785763000,10.08476318359375,-0.963287353515625,-0.408599853515625,0.203704833984375
1701792829795716000,10.094716064453126,-0.985565185546875,-0.4019622802734375,0.2401580810546875
1701792829805668900,10.1046689453125,-0.998443603515625,-0.4001007080078125,0.247314453125
1701792829815623200,10.114623046875,-0.9864654541015625,-0.402923583984375,0.2427215576171875
1701792829825576200,10.124576171875,-0.9496612548828125,-0.4026031494140625,0.2170257568359375
1701792829835529000,10.134529052734376,-0.9017181396484375,-0.404815673828125,0.1764984130859375
1701792829845482000,10.14448193359375,-0.848052978515625,-0.4087066650390625,0.14068603515625
1701792829855435000,10.15443505859375,-0.7958221435546875,-0.413787841796875,0.1072845458984375
1701792829865388000,10.164387939453125,-0.7546234130859375,-0.415618896484375,0.0821380615234375
1701792829875341800,10.174341796875,-0.7462005615234375,-0.419708251953125,0.0598602294921875
1701792829885294300,10.18429443359375,-0.7501678466796875,-0.433746337890625,0.0359649658203125
1701792829895247400,10.194247314453126,-0.75579833984375,-0.4448089599609375,0.0124359130859375
1701792829905200400,10.204200439453125,-0.7471466064453125,-0.4521942138671875,-0.00189208984375
1701792829915153400,10.2141533203125,-0.72869873046875,-0.4699249267578125,-0.0081024169921875
1701792829925106400,10.2241064453125,-0.7015380859375,-0.4850006103515625,-0.009552001953125
1701792829935060500,10.234060546875,-0.6700897216796875,-0.49346923828125,-0.0061492919921875
1701792829945013500,10.244013427734375,-0.6314697265625,-0.51263427734375,0.0059356689453125
1701792829954966500,10.253966552734376,-0.6009521484375,-0.5407257080078125,0.0209197998046875
1701792829964919600,10.26391943359375,-0.592620849609375,-0.564605712890625,0.0364227294921875
1701792829974872300,10.273872314453126,-0.6038055419921875,-0.575927734375,0.053436279296875
1701792829984825300,10.283825439453125,-0.61962890625,-0.5868988037109375,0.0664215087890625
1701792829994779400,10.293779296875,-0.6381988525390625,-0.5923919677734375,0.0661468505859375
1701792830004732400,10.303732421875,-0.6869964599609375,-0.5878753662109375,0.0637664794921875
1701792830014685400,10.313685546875,-0.73388671875,-0.591583251953125,0.0530242919921875
1701792830024638500,10.323638427734375,-0.753265380859375,-0.588165283203125,0.0499420166015625
1701792830034591500,10.333591552734376,-0.7567138671875,-0.5851287841796875,0.0537567138671875
1701792830044544500,10.34354443359375,-0.7509765625,-0.598297119140625,0.047760009765625
1701792830054498600,10.35349853515625,-0.7347259521484375,-0.612060546875,0.040313720703125
1701792830064451600,10.36345166015625,-0.7184906005859375,-0.621429443359375,0.0339202880859375
1701792830074404400,10.373404296875,-0.7117919921875,-0.6293182373046875,0.0252685546875
1701792830084357400,10.383357421875,-0.7252960205078125,-0.630126953125,0.0170440673828125
1701792830094310400,10.393310302734376,-0.76318359375,-0.6254425048828125,0.004241943359375
1701792830104263400,10.403263427734375,-0.814849853515625,-0.61529541015625,-0.0060882568359375
1701792830114217500,10.413217529296874,-0.8616790771484375,-0.6045989990234375,-0.0179595947265625
1701792830124170500,10.42317041015625,-0.8983154296875,-0.599945068359375,-0.030181884765625
1701792830134123500,10.43312353515625,-0.9119110107421875,-0.592193603515625,-0.0559234619140625
1701792830144076300,10.443076171875,-0.9091339111328125,-0.5811004638671875,-0.0793914794921875
1701792830154029300,10.453029296875,-0.9006805419921875,-0.5760955810546875,-0.094879150390625
1701792830163982300,10.462982421875,-0.902130126953125,-0.5737152099609375,-0.106536865234375
1701792830173936400,10.472936279296874,-0.9159698486328125,-0.583343505859375,-0.1106414794921875
1701792830183889400,10.482889404296875,-0.9193267822265625,-0.6033477783203125,-0.11383056640625
1701792830193842400,10.492842529296874,-0.89996337890625,-0.6121978759765625,-0.1070404052734375
1701792830203795500,10.50279541015625,-0.8875732421875,-0.624359130859375,-0.0910186767578125
1701792830213748500,10.51274853515625,-0.90673828125,-0.65380859375,-0.0566558837890625
1701792830223702500,10.52270263671875,-0.9630279541015625,-0.68145751953125,-0.015869140625
1701792830233655600,10.532655517578124,-1.0324249267578125,-0.70062255859375,0.0023040771484375
1701792830243608600,10.542608642578125,-1.071441650390625,-0.69512939453125,0.015594482421875
1701792830253561600,10.5525615234375,-1.055755615234375,-0.679412841796875,0.0207977294921875
1701792830263514600,10.5625146484375,-1.0132293701171875,-0.649383544921875,0.016204833984375
1701792830273467600,10.572467529296874,-0.9798126220703125,-0.6026611328125,-0.00189208984375
1701792830283421400,10.58242138671875,-0.9706573486328125,-0.5514068603515625,-0.01202392578125
1701792830293374500,10.59237451171875,-0.991302490234375,-0.502197265625,-0.0234832763671875
1701792830303327500,10.602327392578125,-1.0257110595703125,-0.4635009765625,-0.046173095703125
1701792830313280300,10.6122802734375,-1.0336761474609375,-0.4363250732421875,-0.06976318359375
1701792830323233300,10.6222333984375,-0.978240966796875,-0.424957275390625,-0.07073974609375
1701792830333186300,10.632186279296874,-0.8878936767578125,-0.4404144287109375,-0.0503692626953125
1701792830343140400,10.642140380859376,-0.8014068603515625,-0.48101806640625,-0.011260986328125
1701792830353093400,10.65209326171875,-0.7276763916015625,-0.5158538818359375,0.0084381103515625
1701792830363046400,10.66204638671875,-0.6942596435546875,-0.5410308837890625,0.0022125244140625
1701792830372999400,10.67199951171875,-0.685455322265625,-0.555419921875,-0.0366668701171875
1701792830382952400,10.681952392578125,-0.6886444091796875,-0.5367431640625,-0.09710693359375
1701792830392905500,10.691905517578125,-0.6827850341796875,-0.5184326171875,-0.1661529541015625
1701792830402859500,10.701859619140626,-0.6774444580078125,-0.501373291015625,-0.1982421875
1701792830412812500,10.7118125,-0.7044219970703125,-0.483642578125,-0.181610107421875
1701792830422765600,10.721765625,-0.71881103515625,-0.488861083984375,-0.20904541015625
1701792830432718600,10.731718505859375,-0.723175048828125,-0.4598846435546875,-0.191986083984375
1701792830442671600,10.741671630859376,-0.7728729248046875,-0.4225006103515625,-0.1256103515625
1701792830452624600,10.751624755859375,-0.8386383056640625,-0.4319305419921875,-0.0833740234375
1701792830462578400,10.761578369140626,-0.888641357421875,-0.435028076171875,-0.0253753662109375
1701792830472531500,10.771531494140625,-0.9315948486328125,-0.425445556640625,0.0147247314453125
1701792830482484200,10.781484130859376,-0.9758148193359375,-0.4182891845703125,0.02227783203125
1701792830492437200,10.791437255859375,-1.0015106201171875,-0.406524658203125,0.0130157470703125
1701792830502390300,10.801390380859376,-0.998138427734375,-0.3969879150390625,-0.0067138671875
1701792830512343300,10.81134326171875,-0.969818115234375,-0.3931732177734375,-0.035797119140625
1701792830522297300,10.82129736328125,-0.9246673583984375,-0.38885498046875,-0.0556640625
1701792830532250400,10.83125048828125,-0.870513916015625,-0.393341064453125,-0.0616455078125
1701792830542203400,10.841203369140626,-0.82373046875,-0.405364990234375,-0.0549774169921875
1701792830552156400,10.851156494140625,-0.7759246826171875,-0.429718017578125,-0.03863525390625
1701792830562109400,10.861109375,-0.7460479736328125,-0.4507904052734375,-0.016448974609375
1701792830572062500,10.8710625,-0.745819091796875,-0.473876953125,0.0003509521484375
1701792830582016500,10.8810166015625,-0.745635986328125,-0.4861907958984375,0.0095062255859375
1701792830591969500,10.890969482421875,-0.7510986328125,-0.4917144775390625,0.01007080078125
1701792830601922600,10.900922607421874,-0.747711181640625,-0.5022430419921875,0.010009765625
1701792830611875600,10.91087548828125,-0.7310943603515625,-0.513916015625,0.015960693359375
1701792830621828600,10.92082861328125,-0.704986572265625,-0.5326385498046875,0.0253143310546875
1701792830631781400,10.930781494140625,-0.6891632080078125,-0.5462646484375,0.0281829833984375
1701792830641735700,10.940735595703124,-0.70306396484375,-0.5527801513671875,0.0244140625
1701792830651688400,10.9506884765625,-0.734161376953125,-0.5570220947265625,0.0214691162109375
1701792830661641500,10.960641357421874,-0.75762939453125,-0.5604248046875,0.0279083251953125
1701792830671594500,10.970594482421875,-0.760284423828125,-0.56927490234375,0.030364990234375
1701792830681547500,10.980547607421874,-0.7349090576171875,-0.5861663818359375,0.025970458984375
1701792830691500500,10.99050048828125,-0.6895904541015625,-0.6080780029296875,0.02899169921875
1701792830701454300,11.000454345703124,-0.6515960693359375,-0.629119873046875,0.0372467041015625
1701792830711407400,11.010407470703125,-0.629119873046875,-0.64373779296875,0.052032470703125
1701792830721360400,11.0203603515625,-0.6451568603515625,-0.6561279296875,0.070892333984375
1701792830731313400,11.0303134765625,-0.7339630126953125,-0.672210693359375,0.0833282470703125
1701792830741266400,11.040266357421874,-0.8673095703125,-0.68487548828125,0.079742431640625
1701792830751219500,11.050219482421875,-0.9867095947265625,-0.662841796875,0.0776214599609375
1701792830761173500,11.060173583984374,-1.08404541015625,-0.612640380859375,0.095794677734375
1701792830771126500,11.07012646484375,-1.1507110595703125,-0.56243896484375,0.1057281494140625
1701792830781079600,11.08007958984375,-1.1849517822265625,-0.5394287109375,0.103790283203125
1701792830791032600,11.090032470703125,-1.163665771484375,-0.550445556640625,0.1045989990234375
1701792830800985300,11.0999853515625,-1.10296630859375,-0.58587646484375,0.11077880859375
1701792830810938400,11.1099384765625,-1.0579681396484375,-0.6136932373046875,0.133026123046875
1701792830820892400,11.119892333984374,-1.01312255859375,-0.628814697265625,0.151092529296875
1701792830830845400,11.129845458984375,-0.9503631591796875,-0.63714599609375,0.179168701171875
1701792830840798500,11.139798583984375,-0.9090576171875,-0.6521759033203125,0.1922760009765625
1701792830850751500,11.14975146484375,-0.8821868896484375,-0.669525146484375,0.1810150146484375
1701792830860704500,11.15970458984375,-0.8801727294921875,-0.675048828125,0.182037353515625
1701792830870657500,11.169657470703125,-0.906982421875,-0.658477783203125,0.1994781494140625
1701792830880611600,11.179611572265625,-0.9439849853515625,-0.6198272705078125,0.2345733642578125
1701792830890564600,11.189564697265626,-0.9801483154296875,-0.5681610107421875,0.2759552001953125
1701792830900517600,11.199517578125,-1.007110595703125,-0.5153961181640625,0.309661865234375
1701792830910470700,11.209470703125,-1.0491485595703125,-0.4774169921875,0.3113861083984375
1701792830920423700,11.219423583984375,-1.09649658203125,-0.449859619140625,0.2935333251953125
1701792830930376700,11.229376708984375,-1.116912841796875,-0.437835693359375,0.2711334228515625
1701792830940329700,11.239329833984375,-1.0990447998046875,-0.4451141357421875,0.251220703125
1701792830950283800,11.24928369140625,-1.0445709228515625,-0.4569549560546875,0.249298095703125
1701792830960236800,11.25923681640625,-0.9763641357421875,-0.466522216796875,0.2553558349609375
1701792830970189800,11.26918994140625,-0.8980712890625,-0.477630615234375,0.2645416259765625
1701792830980142800,11.279142822265625,-0.811004638671875,-0.487152099609375,0.264312744140625
1701792830990096000,11.289095947265626,-0.7532958984375,-0.501190185546875,0.2294158935546875
1701792831000050000,11.2990498046875,-0.7177886962890625,-0.512603759765625,0.185546875
1701792831010003000,11.3090029296875,-0.680877685546875,-0.516021728515625,0.1601104736328125
1701792831019955700,11.318955810546875,-0.647705078125,-0.5201873779296875,0.1464080810546875
1701792831029908700,11.32890869140625,-0.641387939453125,-0.533233642578125,0.1373291015625
1701792831039861800,11.33886181640625,-0.6523590087890625,-0.54638671875,0.1331329345703125
1701792831049814800,11.348814697265626,-0.6658477783203125,-0.5337982177734375,0.150146484375
1701792831059768600,11.3587685546875,-0.67950439453125,-0.5121307373046875,0.1535186767578125
1701792831069721600,11.3687216796875,-0.71832275390625,-0.49127197265625,0.123779296875
1701792831079674600,11.378674560546875,-0.800750732421875,-0.461456298828125,0.0806732177734375
1701792831089627600,11.388627685546876,-0.893218994140625,-0.4393157958984375,0.0388946533203125
1701792831099580700,11.39858056640625,-0.9635467529296875,-0.4295654296875,0.0063629150390625
1701792831109533700,11.40853369140625,-0.9774322509765625,-0.4109954833984375,-0.016754150390625
1701792831119487700,11.41848779296875,-0.976715087890625,-0.4031829833984375,-0.0538787841796875
1701792831129440800,11.428440673828124,-0.938995361328125,-0.4141845703125,-0.0884552001953125
1701792831139393800,11.438393798828125,-0.8656158447265625,-0.42578125,-0.1055755615234375
1701792831149346800,11.448346923828124,-0.8006439208984375,-0.44390869140625,-0.1239166259765625
1701792831159299800,11.4582998046875,-0.7606658935546875,-0.468505859375,-0.1360626220703125
1701792831169252600,11.468252685546876,-0.7369232177734375,-0.4894561767578125,-0.154449462890625
1701792831179207000,11.47820703125,-0.70068359375,-0.499908447265625,-0.1757354736328125
1701792831189159700,11.48815966796875,-0.643768310546875,-0.5117340087890625,-0.1837158203125
1701792831199112700,11.49811279296875,-0.589447021484375,-0.5216064453125,-0.188018798828125
1701792831209065700,11.508065673828124,-0.551849365234375,-0.54791259765625,-0.1817169189453125
1701792831219018800,11.518018798828125,-0.53173828125,-0.5715789794921875,-0.1732025146484375
1701792831228971800,11.5279716796875,-0.535491943359375,-0.5869598388671875,-0.1464996337890625
1701792831238924800,11.5379248046875,-0.5738677978515625,-0.6011962890625,-0.11505126953125
1701792831248878600,11.547878662109374,-0.6241607666015625,-0.623016357421875,-0.063751220703125
1701792831258831600,11.55783154296875,-0.6673736572265625,-0.64935302734375,-0.0064697265625
1701792831268784600,11.56778466796875,-0.6880950927734375,-0.6618194580078125,0.0417022705078125
1701792831278737700,11.577737548828125,-0.69500732421875,-0.6832275390625,0.080780029296875
1701792831288690700,11.587690673828124,-0.6723480224609375,-0.7051849365234375,0.0906219482421875
1701792831298643700,11.597643798828125,-0.650238037109375,-0.7052459716796875,0.07623291015625
1701792831308597800,11.60759765625,-0.6583251953125,-0.6996002197265625,0.0629730224609375
1701792831318550800,11.61755078125,-0.68896484375,-0.684600830078125,0.0363616943359375
1701792831328503800,11.62750390625,-0.7443084716796875,-0.6756744384765625,0.0077056884765625
1701792831338456600,11.63745654296875,-0.8067626953125,-0.6665191650390625,-0.008148193359375
1701792831348409600,11.64740966796875,-0.864288330078125,-0.656707763671875,-0.02069091796875
1701792831358362600,11.657362548828125,-0.917449951171875,-0.643829345703125,-0.0245513916015625
1701792831368316700,11.667316650390624,-0.9417266845703125,-0.636016845703125,-0.02294921875
1701792831378269700,11.677269775390625,-0.9509124755859375,-0.6402130126953125,-0.0253753662109375
1701792831388222700,11.68722265625,-0.9709014892578125,-0.656005859375,-0.0240631103515625
1701792831398175700,11.69717578125,-0.9681549072265625,-0.671234130859375,-0.0257110595703125
1701792831408128800,11.707128662109374,-0.9517822265625,-0.676513671875,-0.04168701171875
1701792831418081800,11.717081787109375,-0.94097900390625,-0.671722412109375,-0.0635986328125
1701792831428035800,11.727035888671875,-0.9197845458984375,-0.6543731689453125,-0.0759429931640625
1701792831437988900,11.73698876953125,-0.900970458984375,-0.6426544189453125,-0.0709228515625
1701792831447942000,11.74694189453125,-0.8719940185546875,-0.628265380859375,-0.0624847412109375
1701792831457895000,11.75689501953125,-0.8662261962890625,-0.5884246826171875,-0.0438385009765625
1701792831467848000,11.766847900390625,-0.9071807861328125,-0.5321502685546875,-0.022705078125
1701792831477801000,11.776801025390625,-1.01025390625,-0.4712066650390625,-0.01116943359375
1701792831487754800,11.786754638671875,-1.128692626953125,-0.423370361328125,-0.01617431640625
1701792831497707800,11.796707763671876,-1.2023162841796875,-0.3802032470703125,-0.0337066650390625
1701792831507660500,11.80666064453125,-1.225433349609375,-0.3551177978515625,-0.0416717529296875
1701792831517613600,11.816613525390625,-1.1771392822265625,-0.34979248046875,-0.05224609375
1701792831527566600,11.826566650390625,-1.075439453125,-0.3639068603515625,-0.062286376953125
1701792831537519600,11.83651953125,-0.9510650634765625,-0.4022216796875,-0.0672760009765625
1701792831547473700,11.8464736328125,-0.827606201171875,-0.4470367431640625,-0.0734100341796875
1701792831557426700,11.8564267578125,-0.7240447998046875,-0.483978271484375,-0.07763671875
1701792831567379700,11.866379638671875,-0.6785736083984375,-0.5049896240234375,-0.09417724609375
1701792831577332700,11.876332763671876,-0.6871490478515625,-0.5076141357421875,-0.1114959716796875
1701792831587285800,11.88628564453125,-0.720458984375,-0.49725341796875,-0.1219940185546875
1701792831597238800,11.89623876953125,-0.7505950927734375,-0.4832000732421875,-0.1340484619140625
1701792831607191800,11.90619189453125,-0.774688720703125,-0.471923828125,-0.1365203857421875
1701792831617145900,11.916145751953126,-0.797698974609375,-0.4599761962890625,-0.1267852783203125
1701792831627099000,11.926098876953125,-0.8301544189453125,-0.4514617919921875,-0.1069488525390625
1701792831637052000,11.936052001953126,-0.8656158447265625,-0.4520263671875,-0.080108642578125
1701792831647005000,11.9460048828125,-0.889434814453125,-0.4541168212890625,-0.04583740234375
1701792831656957700,11.955957763671876,-0.9188079833984375,-0.454315185546875,-0.01043701171875
1701792831666911700,11.965911865234375,-0.9535369873046875,-0.4554595947265625,0.00103759765625
1701792831676864500,11.975864501953126,-0.9930419921875,-0.4450225830078125,0.003021240234375
1701792831686817500,11.985817626953125,-1.0225067138671875,-0.432464599609375,-0.0034027099609375
1701792831696770600,11.9957705078125,-1.0236968994140625,-0.417877197265625,-0.0146942138671875
1701792831706723600,12.0057236328125,-1.01983642578125,-0.404266357421875,-0.026947021484375
1701792831716676600,12.015676513671876,-1.0229339599609375,-0.4026031494140625,-0.043731689453125
1701792831726629600,12.025629638671875,-1.0142669677734375,-0.4014892578125,-0.05047607421875
1701792831736583700,12.035583740234374,-0.9936370849609375,-0.4030303955078125,-0.0402679443359375
1701792831746536700,12.04553662109375,-0.9549407958984375,-0.4190216064453125,-0.0330352783203125
1701792831756489700,12.05548974609375,-0.90216064453125,-0.4467010498046875,-0.0300750732421875
1701792831766442800,12.06544287109375,-0.8604736328125,-0.4778900146484375,-0.025665283203125
1701792831776395800,12.075395751953126,-0.8274993896484375,-0.5055694580078125,-0.0101470947265625
1701792831786348800,12.085348876953125,-0.7925262451171875,-0.530792236328125,0.0048675537109375
1701792831796302800,12.095302734375,-0.7645111083984375,-0.5434722900390625,0.016510009765625
1701792831806255900,12.105255859375,-0.7538299560546875,-0.551544189453125,0.021728515625
1701792831816209000,12.115208984375,-0.755340576171875,-0.5543975830078125,0.030029296875
1701792831826161700,12.12516162109375,-0.77899169921875,-0.545745849609375,0.040618896484375
1701792831836114700,12.13511474609375,-0.8278045654296875,-0.540679931640625,0.0396575927734375
1701792831846067700,12.145067626953125,-0.862396240234375,-0.5305328369140625,0.023681640625
1701792831856021800,12.155021728515624,-0.868072509765625,-0.520965576171875,-0.00177001953125
1701792831865974800,12.164974853515625,-0.842376708984375,-0.517303466796875,-0.0345611572265625
1701792831875927800,12.174927734375,-0.803314208984375,-0.5257720947265625,-0.0647430419921875
1701792831885881000,12.184881103515625,-0.7584381103515625,-0.5413360595703125,-0.090728759765625
1701792831895834000,12.194834228515624,-0.7107391357421875,-0.55120849609375,-0.1000518798828125
1701792831905787100,12.204787109375,-0.682952880859375,-0.5588531494140625,-0.093963623046875
1701792831915741200,12.2147412109375,-0.6768646240234375,-0.570098876953125,-0.07232666015625
1701792831925694200,12.224694091796875,-0.6890411376953125,-0.5805816650390625,-0.0454559326171875
1701792831935647000,12.23464697265625,-0.72198486328125,-0.58367919921875,-0.0145111083984375
1701792831945600000,12.24460009765625,-0.7695465087890625,-0.5828857421875,0.0114593505859375
1701792831955553000,12.254552978515624,-0.8246612548828125,-0.569915771484375,0.024017333984375
1701792831965506000,12.264506103515625,-0.881317138671875,-0.5466156005859375,0.0218048095703125
1701792831975460000,12.274460205078125,-0.9371337890625,-0.542205810546875,-0.0027618408203125
1701792831985413000,12.2844130859375,-0.977813720703125,-0.5452728271484375,-0.03106689453125
1701792831995366100,12.2943662109375,-0.9812469482421875,-0.5511322021484375,-0.0386810302734375
1701792832005319200,12.304319091796875,-0.950225830078125,-0.574249267578125,-0.0462646484375
1701792832015272200,12.314272216796875,-0.89764404296875,-0.60003662109375,-0.04718017578125
1701792832025225200,12.32422509765625,-0.8394775390625,-0.62322998046875,-0.0316925048828125
1701792832035179300,12.33417919921875,-0.7886505126953125,-0.6404266357421875,-0.0018463134765625
1701792832045132300,12.34413232421875,-0.7623291015625,-0.62908935546875,0.055694580078125
1701792832055085000,12.3540849609375,-0.785308837890625,-0.6086273193359375,0.1238250732421875
1701792832065038000,12.3640380859375,-0.85321044921875,-0.5737152099609375,0.183563232421875
1701792832074991000,12.3739912109375,-0.936798095703125,-0.518310546875,0.22479248046875
1701792832084944100,12.383944091796875,-1.0182952880859375,-0.4687042236328125,0.2315216064453125
1701792832094898200,12.393898193359375,-1.083160400390625,-0.4343414306640625,0.225830078125
1701792832104851000,12.403850830078126,-1.104278564453125,-0.415863037109375,0.1967010498046875
1701792832114804000,12.413803955078125,-1.0634002685546875,-0.413482666015625,0.16143798828125
1701792832124757000,12.423757080078126,-0.9619903564453125,-0.4320220947265625,0.1312255859375
1701792832134710000,12.4337099609375,-0.831878662109375,-0.46710205078125,0.101837158203125
1701792832144663000,12.4436630859375,-0.697601318359375,-0.4952850341796875,0.098968505859375
1701792832154616000,12.453615966796875,-0.5990753173828125,-0.5219268798828125,0.1045074462890625
1701792832164570000,12.463570068359376,-0.556549072265625,-0.5418701171875,0.1118316650390625
1701792832174523100,12.473523193359375,-0.5605010986328125,-0.55267333984375,0.1071319580078125
1701792832184476200,12.48347607421875,-0.5914306640625,-0.545867919921875,0.12286376953125
1701792832194429200,12.49342919921875,-0.638031005859375,-0.547943115234375,0.1575775146484375
1701792832204382200,12.50338232421875,-0.6879730224609375,-0.5661468505859375,0.1991424560546875
1701792832214335200,12.513335205078125,-0.7399139404296875,-0.5819244384765625,0.241485595703125
1701792832224289300,12.523289306640624,-0.7842864990234375,-0.58660888671875,0.272705078125
1701792832234242300,12.5332421875,-0.8290252685546875,-0.5809326171875,0.287506103515625
1701792832244195300,12.5431953125,-0.863006591796875,-0.565277099609375,0.280853271484375
1701792832254148000,12.553148193359375,-0.8722686767578125,-0.5446014404296875,0.2633514404296875
1701792832264101000,12.56310107421875,-0.869964599609375,-0.525726318359375,0.246185302734375
1701792832274054100,12.57305419921875,-0.8693084716796875,-0.5107879638671875,0.2244415283203125
1701792832284008000,12.583008056640624,-0.8744659423828125,-0.497100830078125,0.2031097412109375
1701792832293961000,12.5929609375,-0.8918609619140625,-0.48291015625,0.17791748046875
1701792832303914000,12.6029140625,-0.9236602783203125,-0.46826171875,0.1549835205078125
1701792832313867000,12.612866943359375,-0.9536285400390625,-0.4636383056640625,0.131866455078125
1701792832323820000,12.622820068359376,-0.9564056396484375,-0.4695281982421875,0.11810302734375
1701792832333773000,12.63277294921875,-0.935699462890625,-0.4828033447265625,0.118988037109375
1701792832343727000,12.64272705078125,-0.8967132568359375,-0.501739501953125,0.121429443359375
1701792832353680100,12.65268017578125,-0.8427276611328125,-0.5257415771484375,0.1185150146484375
1701792832363633200,12.662633056640624,-0.78607177734375,-0.5493316650390625,0.118804931640625
1701792832373586200,12.672586181640625,-0.7391815185546875,-0.5668792724609375,0.110137939453125
1701792832383539200,12.682539306640624,-0.7038421630859375,-0.5804290771484375,0.1027984619140625
1701792832393492200,12.6924921875,-0.6876220703125,-0.5885467529296875,0.10711669921875
1701792832403446300,12.7024462890625,-0.6894073486328125,-0.598388671875,0.1099853515625
1701792832413399300,12.7123994140625,-0.692291259765625,-0.6142578125,0.1099090576171875
1701792832423352000,12.72235205078125,-0.705108642578125,-0.62774658203125,0.12164306640625
1701792832433305000,12.73230517578125,-0.7205810546875,-0.6338653564453125,0.1311187744140625
1701792832443258000,12.742258056640624,-0.7283172607421875,-0.6336212158203125,0.1279754638671875
1701792832453211100,12.752211181640625,-0.735748291015625,-0.6293487548828125,0.11456298828125
1701792832463165000,12.7621650390625,-0.7378997802734375,-0.623077392578125,0.0945587158203125
1701792832473118000,12.772117919921875,-0.737579345703125,-0.616851806640625,0.073577880859375
1701792832483071000,12.782071044921874,-0.7310028076171875,-0.6081390380859375,0.065765380859375
1701792832493024000,12.79202392578125,-0.72698974609375,-0.608123779296875,0.0677337646484375
1701792832502977000,12.80197705078125,-0.731353759765625,-0.614471435546875,0.0827484130859375
1701792832512930000,12.811929931640625,-0.7422027587890625,-0.6294097900390625,0.093780517578125
1701792832522883000,12.821883056640624,-0.74957275390625,-0.6375274658203125,0.09234619140625
