time,seconds_elapsed,z,y,x
1701792819721842700,0.0208427734375,2.9167341266587377,4.992180510538816,-2.3777418160036206
1701792819731796700,0.030796630859375,2.80026901692152,5.197488563594222,-2.5214488606706262
1701792819741749800,0.040749755859375,2.453424833497405,5.545609342825412,-2.3262895689249037
1701792819751702800,0.050702880859375,2.0055016177773473,5.907632975202798,-2.0491928754657507
1701792819761655800,0.06065576171875,1.6018009901434183,6.161449915361404,-1.8289222310781479
1701792819771608600,0.070608642578125,1.2614257104724644,6.552882597574591,-1.6306664346218107
1701792819781563000,0.08056298828125,1.1430272945851088,7.002139692246914,-1.5889125747367738
1701792819791515600,0.090515625,1.3213754445224999,7.3656123543888326,-1.6120505814790724
1701792819801468700,0.10046875,1.7416250558972357,7.710340568572282,-1.790752367159724
1701792819811421700,0.110421630859375,2.059940187190473,8.316634729605912,-2.276640133484453
1701792819821374700,0.120374755859375,1.9938360221639275,8.868580045336484,-2.953546438488364
1701792819831328500,0.13032861328125,1.9011063005402684,9.052762308254838,-3.4371044466912744
1701792819841281500,0.140281494140625,2.148490285041928,8.996468174102901,-3.604722528299689
1701792819851234600,0.150234619140625,2.5281340375229715,8.515108552727103,-3.640163259515166
1701792819861187600,0.1601875,2.652624048283696,7.844780018678307,-3.3691660519748923
1701792819871141600,0.1701416015625,1.9815981796205042,7.136921087658405,-2.856428418777883
1701792819881094400,0.180094482421875,0.6061982994437217,6.612339579671621,-1.8761498461991548
1701792819891047400,0.19004736328125,-1.0098083261847495,6.353828344216942,-1.102434879694879
1701792819901000400,0.20000048828125,-2.462280340126157,6.356001596602797,-0.7635223660528659
1701792819910953500,0.209953369140625,-3.539089195655286,6.391234822547435,-0.6812929956555366
1701792819920907500,0.219907470703125,-4.0344194747164845,6.069113576969504,-0.5564373664528132
1701792819930860500,0.229860595703125,-3.9193089944586155,5.076928585758805,-0.5614212923452258
1701792819940813600,0.2398134765625,-3.2871538314595816,3.7990070830374956,-0.27933190516531464
1701792819950766600,0.2497666015625,-2.5275518537208437,2.9124317532896993,0.6464139899760485
1701792819960719600,0.2597197265625,-2.1214009103253484,2.2128134118705987,1.3746987461701035
1701792819970673700,0.269673583984375,-2.2314880094632503,1.6481787104368208,1.6073361201778054
1701792819980626700,0.279626708984375,-2.589181795942783,1.1881067917615173,2.001524238578975
1701792819990579700,0.289579833984375,-2.7833950390100477,0.5982715980976819,2.2236738285809756
1701792820000532700,0.29953271484375,-2.57092951541543,-0.11802958257496356,2.008812934282422
1701792820010485800,0.30948583984375,-1.7478583973288535,-0.6751385646790266,2.118023835107684
1701792820020439600,0.319439453125,-0.5367798953026532,-1.0028238741248845,2.7444576978504656
1701792820030392600,0.329392578125,0.4114733074620366,-1.4126532137721777,3.8577538710385557
1701792820040345600,0.339345703125,0.8354737958028912,-1.8302555255085229,4.845822659102082
1701792820050298600,0.349298583984375,0.9903113062933087,-2.000119924739003,5.320735004034638
1701792820060251400,0.35925146484375,1.0233981678590178,-1.9880057085752485,5.177072383031248
1701792820070205700,0.369205810546875,0.6163675190195441,-1.9385253460913896,4.673104624006152
1701792820080158500,0.379158447265625,-0.23324030833691356,-1.9187959787487983,4.209115531887114
1701792820090111500,0.389111572265625,-0.694811817920208,-2.3133640363782644,3.7695302286624908
1701792820100064500,0.399064453125,-0.3989794443309307,-3.1276153036713596,3.538983104932308
1701792820110018600,0.4090185546875,0.3335416342586279,-3.9679502757698297,3.771029527309537
1701792820119971600,0.4189716796875,0.8381646423220634,-4.812702479788661,4.139682222437858
1701792820129924600,0.428924560546875,0.6257686768323183,-5.542720635646582,4.260908847488463
1701792820139877600,0.438877685546875,-0.5785387236237526,-5.724906756311655,4.145579171521962
1701792820149830700,0.44883056640625,-2.46531400873363,-5.45439528646171,3.680984806986153
1701792820159784400,0.458784423828125,-4.668201654395461,-5.075152223736048,3.1514807479053735
1701792820169737500,0.468737548828125,-6.172457047066092,-4.939607442736626,2.7865403512984512
1701792820179690500,0.4786904296875,-6.014937750145792,-5.130062210053206,2.5442557357624174
1701792820189643500,0.4886435546875,-4.1636639865279195,-5.639467191696166,2.596793439990282
1701792820199596500,0.498596435546875,-1.8745277979552746,-6.136807641535997,2.537780110007524
1701792820209550600,0.508550537109375,-0.09784662624597548,-6.298818404656648,2.342035711850226
1701792820219503600,0.518503662109375,1.0323848996520042,-5.997965572556853,1.9441516615405678
1701792820229456600,0.52845654296875,1.277262162029743,-5.457673285219073,1.2768757930606602
1701792820239409700,0.53840966796875,0.4187766162127256,-4.962362295380235,0.7277315062254667
1701792820249362400,0.548362548828125,-1.2872843743503093,-5.020435129642486,0.5159124638408422
1701792820259316700,0.558316650390625,-3.048913522878289,-5.317347115162015,0.7157008766919374
1701792820269269500,0.56826953125,-4.179994943603873,-5.562718298536539,0.8417050914078951
1701792820279222500,0.578222412109375,-4.243367053318023,-5.664716199243069,0.6710153472691774
1701792820289175600,0.588175537109375,-3.310974559769034,-5.643883254572748,0.22477730815708635
1701792820299128600,0.598128662109375,-2.188858535787463,-5.576138336601853,-0.514805087120831
1701792820309082600,0.60808251953125,-1.4617156431049108,-5.54559531430006,-1.499966463305056
1701792820319035600,0.61803564453125,-1.143440843822062,-5.476069358131289,-2.454334641818702
1701792820328988700,0.62798876953125,-1.0172387684464455,-5.4194227572798725,-2.948590861907601
1701792820338941700,0.637941650390625,-1.0878051735788583,-5.221510075172781,-2.4058716396838427
1701792820348895500,0.6478955078125,-1.260982642880082,-5.0707081038087605,-1.1403639205947518
1701792820358848500,0.6578486328125,-1.0023962963625788,-4.921945529317855,0.13204407940208912
1701792820368801500,0.667801513671875,-0.29703181250691413,-4.734176055562496,0.4052276910707354
1701792820378754600,0.677754638671875,0.36009880179464815,-4.445968185502291,0.15811755507439373
1701792820388707600,0.68770751953125,0.8421411447376013,-3.92195833992362,0.1252931438371539
1701792820398661600,0.69766162109375,0.5502928723484277,-3.227053583022952,-0.04345715667158365
1701792820408614700,0.70761474609375,-1.2645137396156787,-2.870498152923584,-0.45743718625754115
1701792820418567700,0.717567626953125,-3.409322705796361,-3.2808874645411965,-0.26623101605176924
1701792820428520700,0.727520751953125,-5.408625468933582,-3.8048148925334213,1.3540452497199178
1701792820438473500,0.737473388671875,-6.992346612507104,-4.255463733825088,3.466338724482059
1701792820448427800,0.747427734375,-6.795254599133133,-4.632808269453048,5.880038281312585
1701792820458380500,0.757380615234375,-4.783395136761665,-5.636021435156464,7.962258981633186
1701792820468333600,0.76733349609375,-2.389121288152039,-6.807798438885808,9.45550782712102
1701792820478286600,0.77728662109375,-0.46569151212275023,-6.840911019414663,10.589440545624495
1701792820488239600,0.787239501953125,0.40738603814840313,-6.241752701610326,10.69780505875349
1701792820498193400,0.797193359375,-0.0133195003002882,-5.542223792040348,9.864757321053743
1701792820508146400,0.807146484375,-1.0635822942093014,-4.596019046238064,9.022147389760613
1701792820518099500,0.817099365234375,-1.7864292432636022,-3.508865614566207,8.342690961882472
1701792820528052500,0.827052490234375,-1.4615005390495062,-2.5314871473431584,7.919335785707831
1701792820538006500,0.837006591796875,-0.0615627222046256,-1.5082055916011332,7.749376693931222
1701792820547959600,0.84695947265625,2.004946906504035,-0.21182839473485945,8.086783771446347
1701792820557912600,0.85691259765625,3.8421290164053437,1.2605121027588844,8.514141168999672
1701792820567865600,0.866865478515625,4.452879572325944,2.76750130430758,7.979370859953761
1701792820577818600,0.876818603515625,3.905533274823427,4.261841452163457,7.631651647260784
1701792820587772700,0.886772705078125,2.9298285860314963,5.3659401734173295,7.92899793254435
1701792820597725700,0.8967255859375,2.042634832124412,5.56885051768124,7.5094076618611805
1701792820607678700,0.9066787109375,1.7291864300847053,5.586788325431943,6.417824138787388
1701792820617631700,0.9166318359375,2.1149679546684026,5.669446150374412,5.751314870765805
1701792820627584500,0.92658447265625,3.059282941201329,5.349647794786096,5.258958639079332
1701792820637538600,0.93653857421875,4.310595838460326,5.491361619809269,4.016987278400362
1701792820647491300,0.9464912109375,5.163351900714636,5.761447557723522,2.5850650082737205
1701792820657444400,0.9564443359375,5.0977135996341705,5.492449415045976,1.715233746447414
1701792820667397400,0.9663974609375,4.007222840233147,5.302308535984158,1.0412138105347752
1701792820677350400,0.976350341796875,2.654179461032152,5.917352989706397,0.7104058390237391
1701792820687304400,0.986304443359375,1.4374164836287497,6.526984186208248,0.843921744544059
1701792820697257500,0.996257568359375,1.0205915860056876,6.750564978057145,0.6628779257819056
1701792820707210500,1.00621044921875,1.747950751787424,6.724405869928002,-0.21291165992692113
1701792820717163500,1.01616357421875,3.44229733915925,6.43956718403995,-0.7969635940141976
1701792820727116500,1.026116455078125,5.694121157425641,5.991099193918704,-1.7303528435155748
1701792820737070600,1.036070556640625,7.727320929467678,6.106171680253744,-2.4341081386089325
1701792820747023600,1.046023681640625,9.114742086827754,6.199803319153189,-2.081518105009198
1701792820756976600,1.0559765625,10.775525427293777,5.254815547925234,-1.6545114205896854
1701792820766929700,1.0659296875,12.60807169408798,4.3803690473884345,-0.9911679231226443
1701792820776882700,1.075882568359375,12.752254539573192,3.8974247871696948,-0.26104718367308377
1701792820786836700,1.085836669921875,10.536060837614535,1.9649580104649065,-0.4617541726738214
1701792820796789800,1.095789794921875,6.145358027738332,-0.14028057734966276,-0.13569529538601635
1701792820806742800,1.10574267578125,1.3820891486823559,-0.591608048555255,0.8293143963903188
1701792820816695800,1.11569580078125,-2.1820722366482017,-0.30335517030954356,1.4712185077264903
1701792820826648600,1.125648681640625,-3.935260889089107,0.3349567617535591,1.8772873257964848
1701792820836602600,1.1356025390625,-4.311213093575835,1.1308663166701793,2.745049818524718
1701792820846555400,1.145555419921875,-3.028984249049425,2.2362954097449776,3.864583424797654
1701792820856508400,1.15550830078125,-0.181881000238657,3.360008932051062,3.766166597448289
1701792820866461400,1.16546142578125,2.96821326174438,4.260763009276986,3.06397168353945
1701792820876414000,1.1754140625,4.819990298709273,5.9308799952775235,2.189095267152786
1701792820886368000,1.185367919921875,4.175209462893009,7.997416804254055,1.3418281577035784
1701792820896321000,1.195321044921875,1.6921791802048682,9.829754981255531,0.6402519602149724
1701792820906274000,1.205274169921875,-1.0043845475703477,11.202765335947275,0.3532476207256317
1701792820916227000,1.21522705078125,-3.1118045710772275,11.845536000984907,-0.5205930228725075
1701792820926180000,1.22518017578125,-4.101019606566429,12.108536949074267,-1.8691455203950404
1701792820936134100,1.235134033203125,-4.204565905758738,12.537114243811368,-3.046382250835001
1701792820946087200,1.245087158203125,-4.791974164536595,13.120566458439827,-4.082288018089533
1701792820956040200,1.255040283203125,-6.510183858054876,13.499980786079167,-4.671773083141446
1701792820965993200,1.2649931640625,-8.546321437114477,13.526577701103687,-4.762920504009723
1701792820975946200,1.2749462890625,-9.814924491870404,13.513327758908272,-4.231817193038761
1701792820985900300,1.284900390625,-9.927741892755032,13.511723830842971,-3.412378586235642
1701792820995853300,1.294853271484375,-9.10477248147726,13.433930981588363,-2.497647713844478
1701792821005806000,1.30480615234375,-7.955305509233474,13.45993285332918,-1.2423643055193125
1701792821015759000,1.314759033203125,-6.825813403525948,13.481898016899823,-0.44530046600103373
1701792821025713200,1.324713134765625,-5.7107467135339975,12.477466123056411,-0.55288113527596
1701792821035666200,1.334666259765625,-4.434917214655876,11.062429813539982,-0.3463914712205529
1701792821045619000,1.344618896484375,-2.763162982842326,10.098901592493057,0.91946425758861
1701792821055572000,1.354572021484375,-0.18613894994407892,8.786417894956468,2.373889524489641
1701792821065525000,1.36452490234375,2.9527400905415413,6.603695085445046,3.832890063416958
1701792821075479000,1.37447900390625,5.484980394339561,4.76727343852222,4.700322885799408
1701792821085432000,1.38443212890625,6.900942586529254,3.947739846912026,5.331546905428171
1701792821095385000,1.394385009765625,7.36986942731142,3.156006116375327,5.404640783211589
1701792821105338000,1.404338134765625,7.235305474042892,2.5007068091541527,4.472953515322506
1701792821115291100,1.414291015625,6.728749452090263,2.3261814323753116,3.9251743793606755
1701792821125245200,1.4242451171875,6.169982181385159,1.6214017626702784,3.3204221870720385
1701792821135198200,1.4341982421875,5.7301183534801,0.5403922405809164,3.335913186192512
1701792821145151200,1.444151123046875,5.518247288647293,-0.46038989858329293,4.261677201512455
1701792821155104300,1.454104248046875,5.287797195550799,-1.2744009273797272,5.898032787686586
1701792821165057300,1.464057373046875,5.096452201396227,-1.8978887997984886,7.484221198156476
1701792821175011000,1.474010986328125,5.1223441830217835,-2.7207506590485573,7.864139968186617
1701792821184964000,1.483964111328125,4.678486317044496,-2.9739450833946464,7.363893860033154
1701792821194917000,1.493917236328125,3.631985213756561,-2.4224065948992966,6.682611970293522
1701792821204870100,1.5038701171875,2.0081161841899156,-2.1439970652759075,5.710224735486507
1701792821214823000,1.513822998046875,-0.7881137864738702,-2.8639743041127916,5.247378091400861
1701792821224777200,1.523777099609375,-4.296505938309431,-4.220373715743422,5.736390273356437
1701792821234730000,1.53372998046875,-7.219245150601863,-5.557884302508831,7.219565468597412
1701792821244683000,1.54368310546875,-8.632281810733675,-6.691076431778073,9.18903364996314
1701792821254636000,1.553635986328125,-8.874535154348612,-7.557951035755872,10.665941601502896
1701792821264589000,1.563589111328125,-8.938268498590588,-7.825764352563023,11.082100144171713
1701792821274543000,1.573543212890625,-9.207213449776171,-7.485510653445124,10.758363864612578
1701792821284496100,1.58349609375,-9.71175520929694,-6.7282146145612,9.611840544605254
1701792821294449200,1.59344921875,-10.672474218142032,-6.061674951401352,7.839294865265488
1701792821304402200,1.603402099609375,-11.807582994687557,-5.688294643229246,5.870467319890857
1701792821314355200,1.613355224609375,-12.410087115788459,-5.326332385650277,4.765442131441831
1701792821324309000,1.62330908203125,-11.61328090429306,-4.9603047783285374,5.06682980107069
1701792821334262000,1.633261962890625,-9.4304411904037,-4.711529339468479,5.7977434444636105
1701792821344215000,1.643215087890625,-6.491529426467419,-4.36185840818584,5.9767386601328845
1701792821354168000,1.65316796875,-4.056564378768205,-4.019134519562125,5.543975019621849
1701792821364121000,1.66312109375,-2.390651858720183,-3.4331378811478612,4.858137950795888
1701792821374075100,1.6730751953125,-1.3021113566040992,-2.520141577464342,3.9081571935862303
1701792821384028200,1.683028076171875,-0.7591834600657225,-1.587625165274739,2.924114592298865
1701792821393981200,1.692981201171875,-0.8900818765640258,-1.0078425790697336,2.0174264488488434
1701792821403934000,1.702933837890625,-1.222584230902791,-0.5785065749198198,1.6715461420208215
1701792821413887000,1.712886962890625,-1.1827782902151345,-0.14851123007833958,1.5922423036813735
1701792821423841000,1.722841064453125,-0.806072344751656,0.34965748727917667,1.5576842005193232
1701792821433794000,1.7327939453125,-0.45402445520460605,0.6940279740661383,1.6317472155958412
1701792821443747000,1.7427470703125,-0.438265160536766,0.8636696704566478,1.8508645982950924
1701792821453700000,1.7527001953125,-0.5605845492601395,1.2037673022300004,2.117501857060194
1701792821463653000,1.762653076171875,-0.4834481180876493,1.5866934373825787,2.6097031904458996
1701792821473607200,1.772607177734375,-0.1467623405843973,1.9052052602916956,3.003507862487435
1701792821483560200,1.782560302734375,0.3888356514573097,2.054317378872633,3.188479229956865
1701792821493513200,1.79251318359375,0.9489116666734217,2.0708196008622646,3.6777129457086324
1701792821503466200,1.80246630859375,1.31518360414505,2.017799958336353,4.582069431340694
1701792821513419300,1.812419189453125,1.4690125221148131,1.8648299952834844,5.246197941705584
1701792821523373000,1.822373046875,1.4042904590964316,1.8036796532720327,5.733704979795217
1701792821533326000,1.832326171875,0.949778512635827,1.872311290949583,6.1394695542216295
1701792821543279000,1.842279052734375,0.02550269004702568,2.13774385010004,6.350826824313402
1701792821553232100,1.852232177734375,-1.1336904341802,2.6940637276530266,6.396169356340169
1701792821563185200,1.86218505859375,-2.2012731962025165,3.410305287092924,6.270293151918053
1701792821573139200,1.87213916015625,-2.877968634934723,4.217389146974683,5.801914592668414
1701792821583092200,1.88209228515625,-2.943038780738413,4.845852469718456,5.031174550321698
1701792821593045000,1.892044921875,-2.345930965723097,5.478497462061047,4.16211617256403
1701792821602998000,1.901998046875,-1.343391461497545,6.049105977207422,3.4485388638973236
1701792821612951000,1.911950927734375,-0.13043781324923037,6.481787200132012,2.84521641215086
1701792821622905000,1.921905029296875,0.781211752000451,6.8050161146909,2.1543664835989476
1701792821632858000,1.931858154296875,1.4507342303633688,7.194418752381205,1.584604356148839
1701792821642811100,1.94181103515625,1.9571622420221566,7.297591542086005,1.0682803888976573
1701792821652764200,1.95176416015625,2.1647017073914405,7.248098320120572,0.5362082328945398
1701792821662717200,1.96171728515625,1.9389856570795176,7.383585817974805,0.15857669701874255
1701792821672671000,1.9716708984375,1.4308631164625287,7.346309103503823,-0.258094471347332
1701792821682624000,1.9816240234375,0.9409493094921112,7.0087325146406885,-0.23566110574305058
1701792821692577000,1.991576904296875,0.7710223664194346,6.616208530059456,0.33510581483542917
1701792821702530000,2.001530029296875,1.0830904200166462,6.409215300396085,1.0906441963970661
1701792821712483000,2.011483154296875,1.5968457058236003,6.256527661415935,1.4442080434650182
1701792821722437000,2.02143701171875,2.1797025849074125,5.953987899142503,1.2088023737877607
1701792821732390100,2.03139013671875,2.839668130373955,5.469034052667022,0.8309820373415946
1701792821742343200,2.04134326171875,3.5589097484126686,5.003156078061461,0.5106383228302002
1701792821752296200,2.051296142578125,4.577110639889538,4.536746188536286,0.40854046888053414
1701792821762249200,2.061249267578125,5.575116007816791,4.025209455561638,0.6397691451340913
1701792821772203300,2.071203369140625,6.018633097532391,3.6194361133068798,1.227632746464014
1701792821782156300,2.08115625,5.976100946751236,3.177995829865336,1.686677660179138
1701792821792109000,2.091109130859375,5.779750107133388,2.635508662831783,2.0729583664566276
1701792821802062000,2.10106201171875,5.803287634587288,2.146961760300398,2.5701556084334847
1701792821812015000,2.11101513671875,6.032706046548485,1.7208236754089592,2.9570746126145124
1701792821821969200,2.12096923828125,6.341907604798674,1.303374508407712,3.0760651491761206
1701792821831922200,2.130922119140625,6.526690756219625,1.0260580347180366,2.899291701209545
1701792821841875200,2.140875244140625,6.741427731877565,0.9879863704770803,2.5303923378437756
1701792821851828200,2.150828125,7.0520824115455145,1.114986610493064,2.012908094641566
1701792821861781200,2.16078125,7.3212348680019375,1.2483803509384392,1.4668033216327427
1701792821871736000,2.170736083984375,7.530497211641073,1.2154162389695644,1.104622452867031
1701792821881689000,2.180689208984375,7.82489399946928,1.106133441951871,1.082677163040638
1701792821891642000,2.19064208984375,8.242570545485615,0.9194166921198368,1.288409578987956
1701792821901595100,2.20059521484375,8.486050800547003,0.8042477596729993,1.529388664883375
1701792821911548200,2.210548095703125,8.288406998509169,0.8724374988019465,1.7301017913639545
1701792821921502200,2.220502197265625,7.610254638966918,0.9827525614768267,1.6540543244719503
1701792821931454200,2.2304541015625,6.548759380164742,1.0765326689362524,1.4366110124647617
1701792821941408300,2.240408203125,5.268110498306155,1.182547988590598,1.40606506755352
1701792821951361300,2.250361328125,4.138638266342878,1.1971785714894532,1.7161995227396487
1701792821961314300,2.260314208984375,3.2911025690853593,1.0893939040750265,1.9834470223575829
1701792821971267300,2.270267333984375,2.621853062444925,1.0032599274545908,2.638483879250288
1701792821981220000,2.28022021484375,2.1259330007970334,0.8597130417853593,3.750287768054008
1701792821991174100,2.290174072265625,1.8811504309654234,0.5894412259101868,5.114280703553557
1701792822001127000,2.300126953125,1.773260549610853,0.3562929797708988,6.501634056374431
1701792822011080000,2.310079833984375,1.4892273348867893,0.21689678404033183,7.414311795628071
1701792822021033000,2.320032958984375,0.9896657749313861,0.18521277500987052,7.748662408182025
1701792822030986000,2.329986083984375,0.6213363204080611,0.07530512409210205,7.440113176360726
1701792822040940000,2.33993994140625,0.7157691196225583,-0.20003391204476356,6.775453335598111
1701792822050893000,2.34989306640625,1.4784838225543497,-0.2527466805785894,5.995582476812601
1701792822060846000,2.35984619140625,2.839406264567375,-0.07643617394864559,5.020588274377584
1701792822070799000,2.369799072265625,4.3087668694674965,0.14889000026285648,4.089631951111555
1701792822080752000,2.379752197265625,5.597234316122532,0.39734629017114637,3.4558787052661177
1701792822090706200,2.3897060546875,6.27820582473874,0.7124749003827572,3.1381852130025623
1701792822100659200,2.3996591796875,6.081819329285621,0.9109767805546521,3.1160470309525725
1701792822110612200,2.4096123046875,5.700878230470418,0.7391331902056932,3.3490064765214917
1701792822120565200,2.419565185546875,5.459932462322712,0.39305999115407464,3.9482933891415595
1701792822130518300,2.429518310546875,5.310393058240414,0.06290507672429084,4.925230542337895
1701792822140472000,2.43947216796875,5.048879718360305,-0.3559060262799263,5.854042254790663
1701792822150425000,2.449425048828125,4.432530027258396,-0.5004828395187855,6.358501596724986
1701792822160378000,2.459378173828125,3.335316973865032,-0.3658914137214422,6.609968758887052
1701792822170331000,2.469330810546875,2.021477477805316,-0.07682371196150779,6.679452044957876
1701792822180284000,2.479283935546875,0.766705672264099,0.3416787634849548,6.631031420660019
1701792822190238000,2.489238037109375,-0.21127046859115362,0.8237351349532603,6.516232490569353
1701792822200191000,2.49919091796875,-0.6588274813473224,1.5404776296526193,6.276952025285363
1701792822210144000,2.50914404296875,-0.7544584773704409,2.4832161606490613,5.939755960172414
1701792822220097000,2.519096923828125,-0.7691480969801545,3.424379989674687,5.641524124225974
1701792822230050000,2.529050048828125,-0.9054841744877398,4.277127868622541,5.375812748134136
1701792822240004000,2.539004150390625,-1.2465887913465499,5.088616685464978,4.9049680910319085
1701792822249957000,2.54895703125,-1.8775027221128344,5.780235260301828,4.4341088208824395
1701792822259910100,2.55891015625,-2.8734827216923233,6.411905270132422,4.202335954749584
1701792822269863200,2.56886328125,-3.936376741376519,6.740369747257232,4.090811516284942
1701792822279816200,2.578816162109375,-4.559099182380735,6.579669482213259,3.9620910283476114
1701792822289770200,2.588770263671875,-4.323927321459353,6.127260060989856,3.6486662994444368
1701792822299723300,2.59872314453125,-3.7609699055880306,5.955898701199889,3.399225674673915
1701792822309676300,2.60867626953125,-3.6475104074075815,5.853007066524029,3.4071354248851535
1701792822319629300,2.61862939453125,-3.9902152990698814,5.7446542438328265,3.5987387777149675
1701792822329582300,2.628582275390625,-4.697547283606231,5.905462060904503,3.828661632066965
1701792822339536100,2.6385361328125,-5.803579895532131,6.03778846437931,4.030952383127809
1701792822349489200,2.6484892578125,-6.979378409862518,5.939132859838009,4.32431456721127
1701792822359442200,2.658442138671875,-7.894906862372159,6.020391339376569,5.10157553575933
1701792822369395000,2.66839501953125,-8.302046232283114,6.200623987886309,5.893143846601247
1701792822379349200,2.678349365234375,-8.379343406975268,6.318380014216899,6.2453802444577216
1701792822389302000,2.688302001953125,-8.212962173685431,6.53606181115508,6.1830830704987045
1701792822399255000,2.698255126953125,-8.313995028752087,7.03256522564888,5.729246831342578
1701792822409208000,2.7082080078125,-9.365775533747673,7.4206351534307,4.710180847468972
1701792822419161000,2.7181611328125,-11.242477753132581,7.276285719206928,3.3365023842573165
1701792822429115100,2.728115234375,-12.712342215901613,6.735413586154579,2.0033400558292866
1701792822439068200,2.738068115234375,-12.933693641263245,6.02051876514852,0.5541390263825655
1701792822449021200,2.748021240234375,-11.752435692483186,5.190543274500966,-1.0152671761125325
1701792822458974200,2.75797412109375,-9.612153848338126,4.407805335846543,-1.907522305062413
1701792822468927200,2.76792724609375,-7.493087226179242,3.3338317037433383,-2.621334591528773
1701792822478881000,2.777881103515625,-6.298859321188926,2.1133412302494046,-3.0088024617642164
1701792822488834000,2.787833984375,-5.915003796231747,0.8436579790413379,-2.7766350433558222
1701792822498787000,2.797787109375,-6.12288900629878,-0.5904401738196611,-2.490237437587976
1701792822508740000,2.807739990234375,-6.096290922230482,-2.0441233171164988,-2.09093299908638
1701792822518693000,2.817693115234375,-5.219754755938053,-3.4552772322416305,-2.025506879451871
1701792822528647200,2.827647216796875,-4.090111259061098,-4.800587094581127,-2.5984429607629775
1701792822538600200,2.83760009765625,-3.711281453311443,-5.629653653690219,-3.4398306567847725
1701792822548553200,2.84755322265625,-3.7063515956938264,-5.747979004341364,-4.671323585808277
1701792822558506000,2.857506103515625,-4.111969455125927,-5.3487745190829035,-5.94502308692038
1701792822568459000,2.867458984375,-5.0705157961070535,-4.858509706717729,-6.915700010678171
1701792822578413000,2.8774130859375,-5.769300024789572,-4.476244665822387,-7.658876923316717
1701792822588366000,2.887365966796875,-5.453590399819612,-4.030490026313066,-8.204844918203353
1701792822598319000,2.897319091796875,-4.112266099984944,-3.1178122870594263,-8.125817558717728
1701792822608272100,2.907272216796875,-2.4419056606173513,-1.4661311214596031,-6.594662468683719
1701792822618225200,2.91722509765625,-0.8076710121199489,-0.06327683264613151,-3.422293538789451
1701792822628179200,2.92717919921875,0.5736252326190471,0.6270049406290054,-1.5848443023845553
1701792822638132000,2.937132080078125,-0.1664297486066818,1.0692699844568967,-2.4553964258313177
1701792822648085000,2.9470849609375,-2.994233838185668,1.4764251364588736,-4.217914924414456
1701792822658038000,2.9570380859375,-5.304323382937908,1.6896557992070913,-6.111451081961393
1701792822667991000,2.966990966796875,-6.224319920772314,1.4411428106755018,-6.892296338737011
1701792822677945000,2.976945068359375,-5.468064330852031,0.927514073857665,-6.529446776929498
1701792822687898000,2.986898193359375,-3.7246488844066854,0.5845148754239082,-5.315128854590654
1701792822697851100,2.99685107421875,-2.556967625558376,0.49646132891774175,-3.2387247315943237
1701792822707804200,3.00680419921875,-2.231235788267851,0.40998306890428066,-1.0730082942023873
1701792822717757200,3.016757080078125,-2.5131734920173883,0.6415051751464605,0.16436609407514333
1701792822727711200,3.026711181640625,-4.459432062709332,1.0829553954601288,0.5330515224292874
1701792822737664300,3.036664306640625,-7.6886255803704255,1.2360352486282586,-0.13352818048000334
1701792822747617000,3.046616943359375,-10.005111548161507,1.5184943459033966,-0.8720733416646719
1701792822757570000,3.056570068359375,-10.308971745383738,1.7608190011888742,-1.6304510383054613
1701792822767523000,3.066523193359375,-8.765588457417488,1.9931325500696897,-2.0771753996297715
1701792822777477000,3.07647705078125,-5.858786818969249,2.436802199998498,-1.6490356195271014
1701792822787430100,3.08643017578125,-2.8046529310941692,2.690274856764078,-0.5456219579279422
1701792822797383200,3.096383056640625,-0.5618804342895746,2.9610686506867405,0.7148495205596089
1701792822807336200,3.106336181640625,0.8698235169112681,3.3144501269251108,1.788882189373672
1701792822817289200,3.116289306640625,1.5045195965647697,3.6977404192149637,2.2409368058100343
1701792822827243000,3.126242919921875,1.6447990048706531,4.188798427784443,1.9823469521611927
1701792822837196000,3.136196044921875,1.5184779792904852,4.6252702751636505,1.3289888421356677
1701792822847149000,3.146149169921875,1.112078614091873,4.904074941584468,0.8916896040216088
1701792822857102000,3.15610205078125,0.5356792405843734,4.911010878327488,0.8220131334662437
1701792822867054800,3.166054931640625,0.14866086768209932,4.748565230920911,1.3999112210988998
1701792822877009000,3.1760087890625,0.14069967954456805,4.497073518839478,2.498655137321353
1701792822886962000,3.1859619140625,0.34355858588218685,4.137635811302066,3.724312492059171
1701792822896914700,3.195914794921875,0.6644453212291002,3.8466274968683716,4.934004800423979
1701792822906867700,3.20586767578125,0.9646259531557559,3.628759237447381,5.368794978326559
1701792822916820700,3.21582080078125,1.2073960141211748,3.6910681018441913,4.948329678374528
1701792822926774800,3.22577490234375,1.4475591074585914,3.650210021755099,3.9481665478914976
1701792822936727800,3.235727783203125,1.7489491151750087,3.459449549490213,3.085674689042568
1701792822946680800,3.245680908203125,2.150741863361001,3.3368472521722317,2.6455709149017927
1701792822956633900,3.2556337890625,2.5883500212937594,3.370669442275166,2.4825489289119838
1701792822966587000,3.2655869140625,2.8567139577209946,3.5774329548358916,2.560646021810174
1701792822976541000,3.275541015625,3.1252456519305705,3.8617379722386596,2.551182612416148
1701792822986494000,3.285493896484375,3.521573704969883,4.375063342195749,2.4367906556911767
1701792822996446700,3.29544677734375,3.9114521434783933,5.008282335034012,2.0930437076300383
1701792823006399700,3.305399658203125,4.248112202018499,5.426844431713223,1.2284861484229563
1701792823016352800,3.315352783203125,4.725352113115787,5.494648970916867,0.2835992072209716
1701792823026306800,3.325306884765625,5.487906510919332,5.477309713581204,-0.49155485217571254
1701792823036259800,3.335259765625,6.347196358856558,5.566523536038399,-0.9302692177847027
1701792823046212900,3.345212890625,7.106407875972986,5.511964847376943,-1.1360279372170567
1701792823056166000,3.355165771484375,7.658214660015702,5.286747978758812,-1.1058917421504855
1701792823066118700,3.36511865234375,7.708681695449352,4.979726102635264,-0.8882596295729279
1701792823076073000,3.375072998046875,7.089100767341256,4.526062297436595,-0.5215981082618236
1701792823086025700,3.385025634765625,6.137599084174632,3.773468152633309,0.32709494233727454
1701792823095978800,3.394978759765625,5.3240369681894775,2.794644747298956,1.330454238513112
1701792823105931800,3.404931884765625,4.791712883251905,1.4857529367744922,2.4880142085805534
1701792823115884800,3.414884765625,4.597603100559115,0.39512802959978577,3.5626503962457177
1701792823125838800,3.4248388671875,4.594131625056266,-0.38235388822257516,3.952066477939486
1701792823135791900,3.4347919921875,4.737395602130889,-1.0072650714427231,3.9627527071267363
1701792823145745000,3.444744873046875,4.877377488794923,-1.3446815013080835,4.0013092322751875
1701792823155698000,3.454697998046875,4.822123219084739,-1.4630927766770123,4.42807450915426
1701792823165651000,3.46465087890625,5.0617953140348195,-1.585113474714756,5.378030424183607
1701792823175604700,3.474604736328125,5.829224624398351,-1.8999556692004202,5.745615197819471
1701792823185557800,3.484557861328125,6.962951006674766,-2.390814940327406,5.440123015481233
1701792823195510800,3.4945107421875,8.156526000714301,-3.0239252120941877,4.821076924902201
1701792823205463800,3.5044638671875,8.777641883304714,-4.147617691612243,4.175847176274657
1701792823215416800,3.514416748046875,8.672533157101274,-5.424045156383514,4.119249090740085
1701792823225371000,3.524370849609375,7.881574502590298,-6.487134406378865,4.6207191877305505
1701792823235324000,3.534323974609375,6.4627674423635,-7.483822554227709,5.264878092256188
1701792823245277000,3.54427685546875,5.120175022289157,-8.363550794559716,6.0299155390471215
1701792823255229700,3.554229736328125,4.503139102488756,-8.733827291497589,6.61886868917942
1701792823265182700,3.5641826171875,4.356703509640694,-8.493915542572736,6.833872791340947
1701792823275136800,3.57413671875,4.2594343910217285,-7.988205908316373,7.1006380603998895
1701792823285089800,3.58408984375,3.7157010233193635,-7.7270538029640905,7.728929533708095
1701792823295042800,3.594042724609375,2.6390637249648567,-7.304380763834715,8.090105024823545
1701792823304995800,3.603995849609375,1.4705845937371254,-7.050950777167081,7.600021998766064
1701792823314948900,3.613948974609375,1.0683064001217484,-7.637407434308528,7.054719189789891
1701792823324902700,3.623902587890625,1.5297142435759306,-8.171182887098192,7.294499421289562
1701792823334855700,3.633855712890625,2.1657617378383875,-8.411547055965661,8.74704508498907
1701792823344808700,3.64380859375,2.2184517100185155,-8.58962106513679,10.598235261976718
1701792823354761700,3.65376171875,1.0130635285884142,-8.404578385996818,11.484029085958003
1701792823364714800,3.66371484375,-1.8004387716546653,-8.031652251332998,10.664845038437843
1701792823374668800,3.673668701171875,-4.698359769032895,-7.594150476384162,8.620461024558544
1701792823384621800,3.683621826171875,-6.674857702904939,-7.079509347653389,6.581113251280784
1701792823394574800,3.693574951171875,-6.846236013829707,-6.546532351765036,5.626971282738447
1701792823404527900,3.70352783203125,-5.174744232344627,-5.909226966395974,6.136552789992094
1701792823414481000,3.71348095703125,-2.8636206683695313,-5.354920182231068,6.987391620448231
1701792823424435000,3.72343505859375,-1.0319280957952142,-4.686922136956453,7.164372573685646
1701792823434388000,3.733387939453125,-0.48390375290066,-3.372570891982317,6.987250750672817
1701792823444340700,3.7433408203125,-1.4731810399711132,-2.5901304749697447,6.070562606734037
1701792823454293800,3.753293701171875,-2.821575132061541,-1.7168997799634933,4.780988660141825
1701792823464246800,3.763246826171875,-3.6392686487630006,-0.4333510850101709,3.531484273609519
1701792823474200800,3.773200927734375,-3.7500951680913563,1.038853218883276,2.3883929738774894
1701792823484153900,3.78315380859375,-3.0319372536361215,2.002354551923275,1.3905156162440775
1701792823494107000,3.79310693359375,-1.4514832951650023,2.548711253866553,1.1044587867379188
1701792823504060000,3.803059814453125,0.9080860275492072,2.7464123390495776,1.6462693696841597
1701792823514013000,3.813012939453125,3.1189883451014757,2.9862247192531823,2.04766493524611
1701792823523966700,3.822966796875,4.652034363448619,3.21728505320251,2.0748460798993706
1701792823533919700,3.832919677734375,5.402497341442108,3.1396003404974935,1.980140089766681
1701792823543872800,3.842872802734375,4.666675760002434,3.111844903087616,1.792160772652924
1701792823553825800,3.85282568359375,2.5292712248593565,2.849991955989599,1.0491562939718364
1701792823563778800,3.86277880859375,0.6890341113016009,2.3992864160746334,0.060296793922036886
1701792823573731800,3.87273193359375,-0.7835019087642431,2.040997294050455,-0.9961116631351411
1701792823583686000,3.882685791015625,-1.6685440375953913,1.5476245787978171,-1.973955555912852
1701792823593639000,3.892638916015625,-1.2163678406059741,0.41058337288498875,-2.478037004445493
1701792823603592000,3.902592041015625,0.8965896510228514,-0.9128601100832223,-2.162408920279145
1701792823613545000,3.912544921875,3.611953356336057,-2.2083885811656714,-1.9424001416981218
1701792823623499000,3.9224990234375,5.696831000906228,-3.848852187180519,-1.0040261625867337
1701792823633452000,3.9324521484375,6.297354761844873,-5.341748565968871,1.1653061272148042
1701792823643404800,3.94240478515625,3.1953748346894977,-6.550076892504095,3.2824241725891827
1701792823653357800,3.95235791015625,-3.401289621466398,-7.907530197101831,5.597615424394607
1701792823663310800,3.962310791015625,-10.133327593708037,-9.074118400016426,8.347699729955195
1701792823673263900,3.972263916015625,-14.55012462978363,-9.580838672620057,9.998086764091253
1701792823683217700,3.9822177734375,-14.441230539822577,-8.759683617287873,10.57672719452381
1701792823693170700,3.992170654296875,-9.935597866952419,-6.397498559117317,10.86283780004382
1701792823703123700,4.002123779296875,-3.7239708390146493,-3.6501159137308594,10.959082836312055
1701792823713076700,4.01207666015625,2.020085146664083,-1.0635814174264668,10.765835223406553
1701792823723029800,4.02202978515625,6.518003591895103,1.3958523010969162,10.310361738437413
1701792823732983800,4.03198388671875,8.993922581273317,3.6541169660657644,9.804406020465493
1701792823742936800,4.041936767578125,8.90516059423685,5.349126401260495,9.091545920157433
1701792823752889900,4.051889892578125,7.085252859741449,6.676410777565836,9.394890569072961
1701792823762843000,4.0618427734375,4.667712409573793,8.304698208096623,11.16181840853095
1701792823772796000,4.0717958984375,2.5788284519717095,9.631858665761351,13.678915795993804
1701792823782750000,4.08175,1.3435600960627196,10.477442644429207,15.469146185106037
1701792823792703000,4.091702880859375,-0.17003624866604805,11.513159318852423,15.110764124101399
1701792823802656000,4.101656005859375,-2.74986715567857,12.49611704751253,13.779382249349355
1701792823812608800,4.11160888671875,-4.79295323870182,12.857104907101393,11.534237178194521
1701792823822561800,4.121561767578125,-5.530688837069273,12.76013038751483,8.888751895749568
1701792823832515800,4.131515869140625,-4.7238908083915705,12.256526201105117,6.20925796071887
1701792823842468900,4.14146875,-2.4287872358471154,11.70156942859888,3.466674824568629
1701792823852422000,4.151421875,0.3528910623729229,11.275068355613946,1.238624242208153
1701792823862374700,4.161374755859375,2.5965739520207047,10.811354281044006,-0.11073168065175414
1701792823872327400,4.171327392578125,3.857643980923295,10.502242739164828,-0.4460393016695976
1701792823882281200,4.18128125,4.059992599651217,10.158080926692485,0.16802943888828156
1701792823892234200,4.191234130859375,3.4565564583972095,9.933493588149547,1.0165405570492148
1701792823902187300,4.201187255859375,2.8673224454969164,9.935668009579182,1.3067176813557744
1701792823912140000,4.21114013671875,2.68448984362185,9.876652341508866,1.7798839132733641
1701792823922093000,4.221093017578125,2.9801708260416984,9.699812258046865,1.9185133624151347
1701792823932046000,4.231046142578125,3.104502139109373,9.548612811797856,1.8092494162283836
1701792823942000000,4.241000244140625,2.660790988126397,9.277280088692903,1.633992218043655
1701792823951953200,4.250953125,2.043466314512491,9.115901193735002,1.1921790096364915
1701792823961906200,4.26090625,1.3076426872462033,9.27489757747054,0.9944180109597742
1701792823971859200,4.270859130859375,0.4627741633713245,9.285538213950396,1.063094949083775
1701792823981812200,4.280812255859375,0.11073767200112342,8.733030003640055,1.6530857717007397
1701792823991766300,4.290766357421875,1.1051023453384636,8.219786466747522,2.6607635155975817
1701792824001719300,4.30071923828125,3.18962606190443,8.154545056030154,3.4031542462944984
1701792824011672300,4.31067236328125,4.786604746457934,8.177228012481331,2.9932500878453254
1701792824021625300,4.320625244140625,4.725668923979997,8.047323867717385,2.212235904243588
1701792824031578400,4.330578369140625,3.9198014541506767,7.80426739102602,1.330074737676233
1701792824041532200,4.3405322265625,3.2508857095092534,7.878155634057522,0.6610422347873449
1701792824051485200,4.350485107421875,2.7548668636620044,8.223042253673077,0.3705598439238965
1701792824061438200,4.360438232421875,2.3429928664445874,7.972768100687861,0.2521908002614975
1701792824071391200,4.37039111328125,2.1363053417295217,6.9352481762349605,0.8717826881550252
1701792824081344000,4.380343994140625,2.185307565307617,5.527128514239192,1.2485209284529089
1701792824091298300,4.39029833984375,1.970706783249974,3.795206521710753,1.3639195780023932
1701792824101251000,4.4002509765625,2.0021184050798415,1.69100078407526,0.6199816178634763
1701792824111204000,4.4102041015625,2.669317408931255,-0.1907470282614231,-0.9760083479136228
1701792824121157000,4.4201572265625,1.8824620980858802,-0.7710708817362785,-2.631502349799871
1701792824131110100,4.430110107421875,-2.0782032813727853,-0.8517980308771133,-3.9907410765096545
1701792824141064200,4.440064208984375,-7.867813688263297,-1.5325170260369776,-4.971669637429714
1701792824151017200,4.450017333984375,-13.475034560871123,-2.242397818273306,-3.1074907995313406
1701792824160970200,4.45997021484375,-16.72320867333412,-3.9345553711682557,1.1209025565385817
1701792824170923300,4.46992333984375,-16.2563592233479,-6.54824149377048,5.273597989806532
1701792824180876300,4.479876220703125,-13.203182782328128,-8.538353234714268,9.9960210637331
1701792824190829300,4.489829345703125,-9.804577285379171,-9.853322903847694,12.687386638343334
1701792824200783400,4.499783447265625,-7.655771943038702,-10.507447322070599,10.439998172175883
1701792824210736400,4.509736328125,-7.2765019923061125,-10.097798015165328,5.027111538666486
1701792824220689400,4.519689453125,-9.702826052910089,-9.270277516454458,-0.20600947932302952
1701792824230642400,4.529642333984375,-13.139536531847714,-8.611395090049506,-4.121877685678005
1701792824240595500,4.539595458984375,-14.523274032258987,-8.76662949090302,-7.211486791560054
1701792824250549200,4.54954931640625,-13.372400700348615,-10.23244613958597,-5.819383029341697
1701792824260502300,4.559502197265625,-12.629273472070693,-11.426375353890657,0.6722060183584689
1701792824270455000,4.569455078125,-12.60654492291212,-13.395975637203454,6.387343660327792
1701792824280408000,4.579407958984375,-12.134319040584563,-15.76829162876606,10.609780738341808
1701792824290361000,4.589361083984375,-11.307778200560808,-16.34580860812664,12.522794626557825
1701792824300315100,4.599315185546875,-11.497014824259281,-14.422038348096608,11.377702216136456
1701792824310268200,4.60926806640625,-14.870917257106303,-11.577650787985323,7.0532450255841015
1701792824320221200,4.61922119140625,-18.931051895576715,-9.612676410907506,2.7026275578588246
1701792824330174200,4.62917431640625,-20.2095357083559,-8.309064002090691,-0.0823655639976263
1701792824340127200,4.639127197265625,-17.89922462980747,-7.207120997565984,-1.5142255825430153
1701792824350081300,4.649081298828125,-13.682334080004692,-6.283704422155022,-1.3035539566278458
1701792824360034300,4.659034423828125,-9.599294366765022,-5.709987419599294,-0.29175942506194114
1701792824369987300,4.6689873046875,-6.379932507288456,-5.210999787074327,-0.05959902091622352
1701792824379940400,4.6789404296875,-4.366562348093092,-4.663998649747669,-0.2661807471692562
1701792824389893400,4.688893310546875,-3.789246152001619,-3.71980056759268,-0.5078215118438005
1701792824399846400,4.698846435546875,-4.173956832483411,-2.3707389515042303,-0.5026087456315755
1701792824409800200,4.70880029296875,-5.039222832220792,-1.0506646527081727,-0.18306816419661043
1701792824419753200,4.718753173828125,-6.515978223547339,0.4041571392297745,0.366522112840414
1701792824429706200,4.728706298828125,-8.649782980632782,2.526603759215772,0.7743138091802596
1701792824439659300,4.7386591796875,-10.436908389467,4.2599724434211845,1.06803313613832
1701792824449612000,4.748612060546875,-11.659107420444489,4.90321218727529,1.4437497783035038
1701792824459566300,4.75856640625,-12.627756053245067,4.8300586882591245,1.8452134406656027
1701792824469519000,4.76851904296875,-12.744849816274643,4.496028685961663,2.562714060255885
1701792824479472000,4.77847216796875,-11.469964320248364,4.455523657093942,3.070816142606735
1701792824489425200,4.788425048828125,-9.189735660752653,4.6490343048498035,2.8169688073098658
1701792824499378200,4.798378173828125,-6.739454970499873,4.820689679150283,1.9440829802185295
1701792824509332200,4.808332275390625,-4.406448952801525,4.9960687501490115,0.5986000993996858
1701792824519285200,4.81828515625,-2.331456450168788,4.952102182650566,-0.9275485606491565
1701792824529238300,4.82823828125,-0.8871008149266243,5.060659588003158,-2.268934527543187
1701792824539191300,4.83819140625,-0.13938976598978042,5.484549017184972,-3.41586993548274
1701792824549144300,4.848144287109375,0.2742851431697607,5.790394250744581,-4.278218586468697
1701792824559097300,4.858097412109375,1.0064043629601598,5.499428606408834,-4.75833843691647
1701792824569051400,4.868051513671875,2.290757067772746,4.697904134219884,-4.719412201672792
1701792824579004200,4.878004150390625,4.0138320292398335,3.645811202274263,-3.483717144784331
1701792824588957200,4.887957275390625,5.743064928814769,2.6520447870910164,-1.761667726972699
1701792824598910200,4.89791015625,7.033131042838097,1.8342936949834225,-0.5303402176439762
1701792824608863200,4.90786328125,7.782466478106379,0.9571002338260411,0.6617185266137122
1701792824618817300,4.9178173828125,7.970202634114027,0.11750614322274923,1.4110942938923834
1701792824628770300,4.927770263671875,7.341760354158282,-0.31766514295190573,1.301173783493042
1701792824638723000,4.93772314453125,5.952174712240695,-0.1977995771214366,0.8595552208751439
1701792824648676000,4.947676025390625,4.263943392878771,0.802972625170648,1.3252759590923786
1701792824658629000,4.957629150390625,2.577404848909378,1.9894912709578871,1.9856231973528862
1701792824668583200,4.967583251953125,1.1676061477854847,2.7505583528131243,2.542005034226179
1701792824678536200,4.9775361328125,0.4286152886599302,3.2471801329895853,3.7286779937922954
1701792824688489200,4.9874892578125,0.7854495357006788,3.293505830834806,5.148967401531339
1701792824698442200,4.997442138671875,2.171579191945493,2.589936121441424,5.3756590188771485
1701792824708395300,5.007395263671875,3.7588364006906745,1.652958345928788,4.775744329747558
1701792824718349300,5.017349365234375,4.443016934481263,0.7537602659732103,4.620535063335299
1701792824728302300,5.02730224609375,3.5750852226659653,0.548268673044443,5.2412464567780495
1701792824738255400,5.03725537109375,1.29825848056823,0.7992863378733396,6.770557964771986
1701792824748208400,5.04720849609375,-1.8499942452013491,0.7053589308977126,7.6622466920107595
1701792824758161400,5.057161376953125,-5.316896448785067,0.08927461273372173,7.754069820183515
1701792824768114400,5.067114501953125,-8.550393216598033,-0.34780338384509085,7.963318135297298
1701792824778068200,5.077068115234375,-10.235812985670567,-0.4032750956982374,8.000694218489528
1701792824788021200,5.087021240234375,-9.747394093433021,0.005818330889940261,7.3493532935053105
1701792824797974300,5.096974365234375,-7.337991357013583,0.7649971147805452,5.571440534174442
1701792824807927000,5.106927001953125,-4.4869203736156225,1.526410525855422,2.805739557287097
1701792824817880000,5.116880126953125,-2.033250625446439,1.7799977489113807,-0.27941958344876766
1701792824827834000,5.126834228515625,-0.253349907168746,1.5312386766642332,-3.1046278113156554
1701792824837787100,5.136787109375,0.5996357260577381,1.447639771479368,-5.6231976094186304
1701792824847740200,5.146740234375,0.22093407673239707,1.469266496875882,-7.454087925699353
1701792824857693200,5.156693115234375,-1.094511977741122,1.4721891063243149,-8.602343184065818
1701792824867646200,5.166646240234375,-2.039544172632694,1.5038900664895771,-9.625767947670816
1701792824877600800,5.176600830078125,-1.9459815073162317,1.4113690191805361,-10.950073015904426
1701792824887553800,5.1865537109375,-1.521053236605972,1.5107488463431595,-12.095113988399504
1701792824897506600,5.196506591796875,-1.5863509075552225,1.8574317017257211,-12.592925562882423
1701792824907459600,5.20645947265625,-2.146315863612294,1.8446353485167026,-12.129762107932567
1701792824917412600,5.21641259765625,-2.6563340087175367,1.5194582224994897,-11.340233193963766
1701792824927365600,5.22636572265625,-3.043102206251025,1.1681933000236748,-9.94870635485053
1701792824937319400,5.2363193359375,-2.900188942310214,0.5819514546766876,-7.844377867618203
1701792824947272400,5.2462724609375,-1.6697183420717716,-0.140932903778553,-6.382713077917694
1701792824957225500,5.2562255859375,0.3725813398141414,-0.5590501792997121,-5.999068565362691
1701792824967178500,5.266178466796875,2.7976643873810767,-0.34086627805829045,-6.363245576381683
1701792824977131500,5.276131591796875,5.410961218404769,0.14463555768877268,-7.531067705005407
1701792824987085600,5.28608544921875,7.229760114875435,0.8125783656448126,-8.023343857192993
1701792824997038600,5.29603857421875,7.338641345354914,1.3577882356405258,-6.991220823347568
1701792825006991600,5.30599169921875,6.587538315892219,1.4100082522213457,-5.249197123521566
1701792825016944600,5.315944580078125,5.717812414136529,1.439312672638893,-3.749918350219726
1701792825026897700,5.325897705078125,5.319382420381904,1.7369745997428894,-2.0703665963977573
1701792825036851700,5.335851806640625,5.771110873603821,2.398200374403596,-0.4378834677428007
1701792825046804700,5.3458046875,6.749988054952025,2.4792928497254847,0.12276771701276301
1701792825056757800,5.3557578125,7.969446847310662,1.697166905489564,1.0250684391587972
1701792825066710500,5.36571044921875,8.9131434096843,0.5103986688554286,3.264329128450155
1701792825076663600,5.37566357421875,9.455456389194726,-0.07178045709729194,6.6259256219536065
1701792825086616600,5.385616455078125,9.183374893549084,0.18789923761487007,9.881931743216514
1701792825096570400,5.3955703125,7.731575079780817,1.0708879410475491,12.911793944144248
1701792825106523400,5.4055234375,5.134120545533299,2.82242531915009,14.944176554584502
1701792825116476400,5.415476318359375,2.8580443295419213,4.301939069274067,16.51938472135663
1701792825126429400,5.425429443359375,2.7143302706122396,4.183941635403037,16.898289345908164
1701792825136382500,5.435382568359375,3.848184078660607,2.8682442365169525,16.20369263204336
1701792825146336500,5.44533642578125,4.569368355199694,2.191062767833471,16.202477995556592
1701792825156289500,5.45528955078125,4.482659209039807,2.9604736074030398,15.72259487647414
1701792825166242600,5.46524267578125,3.75746511233747,3.721030109387636,13.987273304635286
1701792825176195600,5.475195556640625,2.6279431960135695,4.537701297304034,11.575763951325415
1701792825186148600,5.485148681640625,1.6526871277719735,5.873996663060784,9.089141781625152
1701792825196102700,5.4951025390625,1.0483487769812345,7.219228199467063,6.383138609853386
1701792825206055700,5.5050556640625,0.7969226774819195,8.158830186003446,3.6716216430962083
1701792825216008700,5.5150087890625,1.180815173448622,8.637691560822725,1.1397691695719956
1701792825225961700,5.524961669921875,2.02700515518561,9.010241847911477,-1.0307394705325363
1701792825235914500,5.53491455078125,2.5532442211210724,9.133955321341752,-2.5473510714292527
1701792825245867500,5.544867431640625,2.8113530132547018,8.980143062245846,-3.4551930610895156
1701792825255821600,5.554821533203125,3.086047614008188,8.821821801292895,-3.5639912894606587
1701792825265774600,5.564774658203125,3.4858959501281377,8.678455532887577,-3.115752431920171
1701792825275727600,5.5747275390625,4.016222139246762,8.327125143960117,-2.9430373194336887
1701792825285680600,5.5846806640625,4.477785173262656,8.010551595637201,-3.096107820251584
1701792825295633700,5.594633544921875,4.50199285506308,7.964313576075434,-3.3625112702608106
1701792825305587500,5.60458740234375,3.943578927840292,7.998558960026502,-3.8485616798013447
1701792825315540500,5.61454052734375,3.2814623418197035,8.001710702055693,-4.44979212770462
1701792825325493500,5.624493408203125,2.9848423249840734,8.038695740103721,-4.963476394101977
1701792825335446500,5.634446533203125,3.262133664232492,7.7149471855849026,-5.394838351121544
1701792825345399600,5.644399658203125,3.853198984213173,7.33350222890079,-4.917247142368555
1701792825355352600,5.6543525390625,4.539196212036908,7.070621107798814,-3.7596453789860007
1701792825365306600,5.664306640625,5.2264007698237895,6.782151956453919,-2.5295067871809005
1701792825375259600,5.674259765625,5.699411080527305,6.546517154195905,-0.7592933501809835
1701792825385212700,5.684212646484375,5.622449421399831,6.389523342454433,1.3516449105799198
1701792825395165700,5.694165771484375,5.0909518504142754,6.60098407292068,3.5712411144584415
1701792825405118500,5.704118408203125,3.9333366430282592,6.747073044288158,6.33441754130423
1701792825415072800,5.71407275390625,2.2271429659962654,5.938321543455124,9.18403774137199
1701792825425025500,5.724025634765625,-0.0472042342454195,4.924819623449444,11.532046390151978
1701792825434978600,5.733978515625,-2.562212248213589,4.64574899956882,12.967323523664474
1701792825444931600,5.743931640625,-4.471569952009618,3.821400993414223,13.493608328437805
1701792825454884600,5.753884521484375,-5.410795798709988,2.5584093487992883,13.761335720527171
1701792825464837600,5.763837646484375,-5.332134349927306,1.839617520354688,13.92957982507944
1701792825474791400,5.77379150390625,-4.305738461557031,1.395906661632657,12.610939358478785
1701792825484744400,5.783744384765625,-2.9351319531366227,1.0885568687289953,9.480901211574674
1701792825494697500,5.793697509765625,-2.022479640585184,0.49581192509829997,4.684444933187962
1701792825504650500,5.803650390625,-1.7022405554920435,-0.06420359210222959,-0.28512334804832934
1701792825514603500,5.813603515625,-1.6751508885145185,-0.5705813348785043,-4.467269332206249
1701792825524557600,5.8235576171875,-1.605906087374687,-1.5973939873561263,-7.601552861595153
1701792825534510600,5.833510498046875,-1.4151409389346836,-2.980416032974422,-9.284531667256354
1701792825544463600,5.843463623046875,-1.213072306191921,-4.410136409142613,-9.466734739056228
1701792825554416600,5.853416748046875,-0.8836205715954303,-5.696928031539916,-8.332600360500813
1701792825564369700,5.86336962890625,-0.3610346213400364,-6.664331632715463,-6.804046977397799
1701792825574323700,5.87332373046875,0.5056774855524301,-7.249963529470563,-5.770484850659966
1701792825584276700,5.88327685546875,1.4617957226037979,-7.333962247627973,-5.179610961598158
1701792825595474400,5.894474365234375,1.9666700750797985,-6.970362744235992,-5.113283509209752
1701792825605427500,5.904427490234375,1.711044039672613,-6.230261585780978,-5.835422894516587
1701792825615380500,5.91438037109375,1.2769067727208137,-5.59449583106935,-6.535491902312636
1701792825625333500,5.92433349609375,1.0346703802406787,-5.01707237521112,-6.8699979976892465
1701792825635286500,5.93428662109375,0.8120008580178022,-4.531465033262968,-6.865122500607371
1701792825645239600,5.944239501953125,0.5472200407743454,-4.339946436107159,-6.299303557825088
1701792825655193600,5.954193603515625,0.4345616298437118,-4.299289139287174,-5.285680641788244
1701792825665146600,5.964146728515625,0.08680500774979591,-4.284019966223836,-3.843009306371212
1701792825675099600,5.974099609375,-0.9065560415029525,-4.380412886530161,-2.113468071499467
1701792825685052700,5.984052734375,-2.3853069905608892,-3.8508454068243503,1.1260574550837277
1701792825695005700,5.994005615234375,-4.441871856099367,-1.9813719696491956,6.346812912496924
1701792825704959700,6.003959716796875,-6.737045571270585,0.49556891012266274,12.703998750448227
1701792825714912800,6.013912841796875,-8.333803306549788,2.71485166413784,19.07102969058752
1701792825724865800,6.02386572265625,-9.161910665237903,3.5715205159217116,23.611359582829476
1701792825734818600,6.033818603515625,-9.933826765626668,2.1862271643705666,27.528222060918807
1701792825744771600,6.043771484375,-10.730060145670175,1.3803921355061233,30.716192756831646
1701792825754724600,6.053724609375,-11.576037507569788,2.594435478687286,32.44159148507118
1701792825764678400,6.063678466796875,-11.845483394014835,4.26066305603385,30.51603141901493
1701792825774631400,6.07363134765625,-11.127833136820792,5.50933859052658,24.422746108341215
1701792825784584400,6.08358447265625,-9.56078606467247,6.789818545559048,17.479066788369416
1701792825794537500,6.093537353515625,-7.118216971710324,8.268708026304841,12.163294959700107
1701792825804490500,6.103490478515625,-4.554007704460621,9.485991812711953,9.200592570331692
1701792825814444500,6.113444580078125,-2.2103075665295124,10.001750547295808,7.892413291990756
1701792825824397600,6.1233974609375,0.1385053843706846,10.156727173995971,7.358036950698494
1701792825834350600,6.1333505859375,2.1798364404201505,10.538646762454508,7.34428198159039
1701792825844303600,6.1433037109375,3.672418346431851,11.074178703522682,7.126300909444689
1701792825854256600,6.153256591796875,4.73599684124887,11.292359682154654,6.328294089987874
1701792825864209700,6.163209716796875,5.494066787114739,11.295415562593936,5.1055374251276255
1701792825874163700,6.173163818359375,5.97769961411953,11.182477750200032,3.5374475659281015
1701792825884116700,6.18311669921875,6.3183373441189525,10.967442668378352,2.033988292071223
1701792825894069800,6.19306982421875,6.589013064619898,10.48828786357045,0.6525701745182275
1701792825904022800,6.203022705078125,7.1066346704661845,9.79411492807567,-0.6366401994585991
1701792825913975800,6.212975830078125,7.87573279082477,8.99352627543211,-1.4158967257380484
1701792825923929600,6.2229296875,8.677047419655322,8.193414008128643,-1.8768220463722942
1701792825933882600,6.232882568359375,9.327682242196797,7.348685769507289,-2.4574819999337194
1701792825943835600,6.242835693359375,9.864550400304793,6.67030544642806,-2.9938299335598946
1701792825953788700,6.25278857421875,10.172844780582189,6.193748841419816,-3.290081409344077
1701792825963741700,6.26274169921875,10.100458758807182,5.786443467292189,-3.362140683382749
1701792825973695700,6.27269580078125,9.919439343833922,5.302805379590392,-3.329939957001805
1701792825983648800,6.282648681640625,9.698992173835634,4.929476509344577,-3.118791945746541
1701792825993601800,6.292601806640625,9.21488120792508,4.8293984707847235,-3.005558365276456
1701792826003554600,6.302554443359375,8.635453426507114,4.896345224115252,-3.218655172511935
1701792826013507600,6.312507568359375,7.904718646812438,4.867494100423157,-3.548374618133902
1701792826023460600,6.322460693359375,6.994899804121255,4.763478430153429,-3.6249025620192286
1701792826033414700,6.33241455078125,6.049321081262827,4.663016360712051,-3.5961294719994066
1701792826043367700,6.34236767578125,5.302776738017797,4.570948902389407,-3.6225738268107173
1701792826053320700,6.35232080078125,4.940991590571403,4.594805286534131,-3.5857974630773066
1701792826063273700,6.362273681640625,4.970516960263252,4.610390101417899,-3.386409447720647
1701792826073226800,6.372226806640625,5.15528725220263,4.730685875359177,-3.2188989181399346
1701792826083180500,6.3821806640625,5.202636447876691,4.769791558822989,-2.898802456387877
1701792826093133600,6.392133544921875,5.066786546450853,4.588596202760934,-2.044931126368046
1701792826103086600,6.402086669921875,4.959679924428463,4.281770141470432,-0.7846569240182638
1701792826113039600,6.41203955078125,4.900581546510756,4.040595240741968,0.1898369276791811
1701792826122992600,6.42199267578125,4.904738958451151,3.9884035734727976,0.6216618260353803
1701792826132945700,6.431945556640625,4.802600187969207,4.272628219115734,0.838622322961688
1701792826142899700,6.441899658203125,4.67286497003138,5.122440629133582,0.5802490346729755
1701792826152852700,6.451852783203125,4.120542345421016,6.3234524951756,0.10422609815001486
1701792826162805800,6.4618056640625,3.1489196652457117,7.585712318384647,-0.06929039384722709
1701792826172758500,6.471758544921875,2.1410436222977935,8.934614067736268,-0.0091454294860363
1701792826182711600,6.481711669921875,1.1697340997248888,10.531731868499516,0.7912871558129787
1701792826192665900,6.491665771484375,0.5388331745706498,12.266584653782845,2.3303946661561725
1701792826202618600,6.50161865234375,0.24454700751006603,14.56112650079131,4.379989692682027
1701792826212571600,6.511571533203125,0.17841054764911532,17.050758373701573,6.237376386222243
1701792826222524700,6.521524658203125,0.5203893169939517,18.9314154681921,7.1781018238306045
1701792826232477700,6.531477783203125,1.0796002398133278,19.704050530505178,7.545954308491945
1701792826242431700,6.541431640625,1.1980150223135948,20.193285999822617,8.769795261457562
1701792826252384800,6.551384765625,0.6413911933779716,21.419493681919572,10.084966590642928
1701792826262337800,6.561337890625,-1.2272732655018568,23.62787115716934,10.938658472442626
1701792826272290800,6.571290771484375,-3.946945481663942,26.475278357362747,10.427945330810546
1701792826282243800,6.581243896484375,-6.1829620744675395,28.136419425225256,8.618559574851393
1701792826292196900,6.59119677734375,-8.280011510607599,28.18173156211376,6.718163760668039
1701792826302150700,6.601150634765625,-10.014571450424194,26.901539776372907,4.48634695764184
1701792826312103700,6.611103759765625,-10.397829594010114,24.865406873488425,1.9208020578742027
1701792826322056700,6.621056640625,-9.174065213412046,22.759753275132176,-0.7322457687795162
1701792826332009700,6.631009765625,-7.243126376926899,20.85440597602129,-2.733272871491313
1701792826341962800,6.640962646484375,-5.962156008028984,19.0802405865252,-4.160626226267218
1701792826351916800,6.650916748046875,-5.688727773949504,17.42225242973566,-5.237125577455759
1701792826361869800,6.660869873046875,-6.107433078491687,16.14276440834999,-5.4767205155164
1701792826371822600,6.670822509765625,-6.509537376844882,14.899406854009628,-5.518121031919121
1701792826381775600,6.680775634765625,-6.829407628625631,13.61245448809266,-5.615813344386219
1701792826391728600,6.690728759765625,-7.20032066990137,12.5149748927176,-5.427215603113174
1701792826401681700,6.700681640625,-7.55623955566287,11.52062717051506,-5.04016098985374
1701792826411635700,6.7106357421875,-7.800671412360668,10.52359181666374,-4.261680124121904
1701792826421588700,6.720588623046875,-7.4956316499650475,9.61461000931859,-3.04307473372221
1701792826431541800,6.730541748046875,-6.430300174000859,8.995170535507798,-1.5879659415364265
1701792826441494800,6.740494873046875,-5.158030413430929,8.484683019325137,-0.32080665584802626
1701792826451447800,6.75044775390625,-4.255481269481778,7.954801066842675,0.6488514462560415
1701792826461401600,6.760401611328125,-4.044038074672222,7.385656194508075,1.4323568621516227
1701792826471354600,6.770354736328125,-2.9731226610958577,6.645702920091152,2.668689632421732
1701792826481307600,6.7803076171875,-3.0381892997682094,6.481900597378611,4.203474603390694
1701792826491260700,6.7902607421875,-3.663995970523357,5.989526245513558,5.475844901725649
1701792826501213700,6.800213623046875,-4.3609518147349355,5.4781900035470725,6.392915907502174
1701792826511167700,6.810167724609375,-5.103694427609444,5.285828525826335,7.453635505756735
1701792826521120800,6.820120849609375,-5.76989974424839,4.991234754121304,8.733089040350913
1701792826531073800,6.83007373046875,-6.493375346595048,4.415148099824786,10.204527036046981
1701792826541026600,6.840026611328125,-7.511449981343746,3.344972106438875,11.043610546779632
1701792826550979600,6.8499794921875,-8.719684784376621,2.387712882658839,11.488590694785117
1701792826560932600,6.8599326171875,-9.795624748116731,1.6934247963517903,11.510844612169265
1701792826570886700,6.86988671875,-10.752171439713239,1.2714502608805893,10.772233400011062
1701792826580839700,6.879839599609375,-11.481415104067326,1.2822118933916091,9.797524444258212
1701792826590792700,6.889792724609375,-12.30991643050909,1.3871382487654684,8.450877195835114
1701792826600745700,6.899745849609375,-13.278878367042541,1.2450322095543145,7.2164458752721545
1701792826610698800,6.90969873046875,-14.086004897022246,1.1852116548418998,6.143675189217925
1701792826620652800,6.91965283203125,-14.803210917580127,1.0648387240111827,5.31754234547317
1701792826630605800,6.929605712890625,-15.423594394242762,0.39651334647834297,4.671293775191903
1701792826640558600,6.93955859375,-15.859149711298942,-0.29689444986283775,4.723517298904061
1701792826650511600,6.94951171875,-16.06207934478521,-0.5046311913698911,5.913898465338349
1701792826660464600,6.959464599609375,-15.977889487969874,-0.6459902116060257,7.753571223011613
1701792826670418700,6.969418701171875,-15.759052675777673,-1.0107020601540804,9.80329192174375
1701792826680371700,6.979371826171875,-15.243292772150038,-1.9159815058499574,11.26046115359068
1701792826690324700,6.98932470703125,-14.384399814575909,-3.6361768202275035,11.282602842772006
1701792826700277800,6.99927783203125,-13.539575129842758,-5.180805724340677,10.563750808572768
1701792826710230500,7.00923046875,-12.912785293269156,-6.058835344061255,10.058377858924866
1701792826720183600,7.01918359375,-12.356882764345407,-6.64462447720468,9.748883455207944
1701792826730137600,7.0291376953125,-11.703515886491536,-7.002099944758415,9.343878759238123
1701792826740090600,7.039090576171875,-11.107238092559575,-6.867304520821571,8.993720921221374
1701792826750043600,7.049043701171875,-10.590668041592835,-6.169029995226859,8.858789888206124
1701792826759996700,7.05899658203125,-9.93192122426629,-5.2002282176911825,8.895976001784206
1701792826769949700,7.06894970703125,-9.225855021882056,-4.189551291978359,9.051127985051274
1701792826779903700,7.07890380859375,-8.643041105157137,-3.215241564676165,9.067746526896952
1701792826789856800,7.088856689453125,-8.051612504822016,-2.396583586856723,8.775386797854305
1701792826799809800,7.098809814453125,-7.478323372289538,-1.6663672780781984,8.363921381437779
1701792826809762800,7.1087626953125,-6.934503495347499,-0.9817115279912948,7.933737236025929
1701792826819715800,7.1187158203125,-6.503356642383337,-0.3642220192044973,7.44523358811438
1701792826829669600,7.128669677734375,-6.161963125580549,0.1111830776810646,6.99033936433792
1701792826839622700,7.13862255859375,-5.83138910895586,0.397139953944087,6.499638498643041
1701792826849575700,7.14857568359375,-5.744421604120731,0.7049187859147786,5.846615904182196
1701792826859528700,7.15852880859375,-5.283817186003923,0.7913631436586379,5.3237809476017945
1701792826869481700,7.168481689453125,-4.962203889948129,0.8980296206980943,4.589840065342187
1701792826879434800,7.178434814453125,-4.793240823471546,0.7869248689502477,3.8502608849346633
1701792826889388800,7.188388916015625,-4.690450311082602,0.7087871517807245,3.375252678412199
1701792826899341800,7.198341796875,-4.497335969167947,0.745916566735506,3.032498394650221
1701792826909294800,7.208294921875,-4.192410773062706,0.8726029184967279,2.49235632943809
1701792826919248000,7.218247802734375,-3.920567177826166,1.0468740282535551,2.158358768105507
1701792826929201000,7.228200927734375,-3.716244044154882,1.2331751830220221,2.0912170767247678
1701792826939155000,7.238155029296875,-3.366753730136156,1.4744295787274837,1.8694085552453994
1701792826949108000,7.24810791015625,-3.1812147919118403,1.7597306214302777,1.5898329044520854
1701792826959061000,7.25806103515625,-3.0493478226423263,2.019398625704646,1.3105115206807851
1701792826969014000,7.268013916015625,-2.7418530683100224,2.353163547325134,1.0357178434669971
1701792826978967000,7.277967041015625,-2.28556417530477,2.5950673468500374,0.7542050871312618
1701792826988920000,7.287920166015625,-1.82729550665915,2.727408947893977,0.5165367332190275
1701792826998873900,7.297873779296875,-1.4610469500631094,2.849911876490712,0.4341583097398281
1701792827008827000,7.307826904296875,-1.0786099866669625,3.0576947952270506,0.39557401980161666
1701792827018779600,7.317779541015625,-0.6852285815387964,3.247561533522606,0.3695902682393789
1701792827028732700,7.327732666015625,-0.35137824665717776,3.3797567118331786,0.37916006061732765
1701792827038685700,7.337685791015625,-0.07632146152779459,3.51447293305397,0.25564766271710393
1701792827048639700,7.3476396484375,0.13527809288725257,3.672959029179811,0.016962825238704682
1701792827058592800,7.3575927734375,0.24453122541904448,3.7955896758094427,-0.1614806017667055
1701792827068545800,7.3675458984375,0.28332316675856706,3.9923166552633043,-0.1797591857790947
1701792827078498800,7.377498779296875,0.4326650024421513,4.350124715772271,-0.11394319004416466
1701792827088451800,7.387451904296875,0.6699364659912884,4.781106441302597,0.04849544309973716
1701792827098406000,7.397406005859375,0.9369577556379138,4.921158762854337,-0.016492869639396668
1701792827108359000,7.40735888671875,1.1959219955570994,4.607044298121333,-0.4647299736142158
1701792827118312000,7.41731201171875,1.441315829154849,4.244907853019237,-0.7685755577892065
1701792827128265000,7.427264892578125,1.7427749565847217,4.271987583124638,-0.7253811437070369
1701792827138218000,7.437218017578125,1.9857395172089338,4.536266588325798,-0.4077975415587425
1701792827148171000,7.4471708984375,2.037830646713078,4.910905079865455,0.1496902107298374
1701792827158124800,7.457124755859375,1.8695291128851472,5.391393763625621,0.6562205137193202
1701792827168077800,7.467077880859375,1.5151023653775453,5.750597662407159,0.8991974954336881
1701792827178030800,7.47703076171875,1.1247650771856308,6.25319764021039,1.3897984078854322
1701792827187984000,7.48698388671875,0.965805372198671,6.627036798065901,1.362545074778795
1701792827197937000,7.49693701171875,1.3679139083355665,6.369576532968878,0.551662991657853
1701792827207890700,7.506890625,2.099935220709443,6.316387963616847,0.2932254059612751
1701792827217843700,7.51684375,2.655299989494681,6.638877457985282,0.023988778352737425
1701792827227796700,7.526796630859375,3.0224294205784794,7.272648824009299,-0.3216618113726377
1701792827237749800,7.536749755859375,3.226035345891118,8.13789904165566,-0.7912702046781778
1701792827247702800,7.546702880859375,3.2967215780109167,8.787360728764533,-1.496355579331517
1701792827257655800,7.55665576171875,3.3112574683636424,9.122400492626427,-2.544234985235333
1701792827267609900,7.56660986328125,3.2900212035894394,9.112209353479743,-3.7691409370839595
1701792827277563000,7.57656298828125,3.2373212945371863,8.804328230178356,-4.985398303052783
1701792827287516000,7.586515869140625,3.1022569905310866,8.309231175351142,-6.209890997925401
1701792827297469000,7.596468994140625,2.6911861263900994,7.717612605401873,-7.2320759906023735
1701792827307422000,7.606421875,1.9901853907018898,7.00934509358108,-7.973992089524865
1701792827317376000,7.6163759765625,1.1786579954147338,6.204025905284285,-8.193919619563221
1701792827327329000,7.6263291015625,0.4389081346154213,5.471566201493144,-7.7305492438644166
1701792827337282000,7.636281982421875,0.056848260903358455,5.097926950123906,-6.583848813724518
1701792827347235000,7.646235107421875,0.13181907500717788,5.000223531740904,-4.848351885318756
1701792827357187800,7.656187744140625,0.2960264713892713,4.913999538749456,-3.362953753331303
1701792827367140900,7.666140869140625,0.40145668463204054,4.865405895972252,-2.4146172561973334
1701792827377095000,7.676094970703125,0.672627458640933,4.965137605312466,-1.8065186760902403
1701792827387047700,7.686047607421875,1.1031237387418746,5.148586293259263,-1.4996248102605343
1701792827397000700,7.696000732421875,1.4732459219008682,5.39063271612525,-1.3883236591577528
1701792827406953700,7.70595361328125,1.7907722409039735,5.495327016308903,-1.5404332059890031
1701792827416906800,7.71590673828125,1.9268015905499458,5.334003066408634,-1.7706991746902465
1701792827426860800,7.72586083984375,1.864823565542698,5.003806650924682,-1.6942507257819175
1701792827436813800,7.735813720703125,1.4115829541921614,4.627582351498305,-1.2975439025580882
1701792827446766800,7.745766845703125,0.5460977587461471,4.172837180803716,-0.7554138783991337
1701792827456720000,7.755719970703125,-0.2007680715382099,3.5576793298348783,-0.44487025789022444
1701792827466673000,7.7656728515625,-0.711315208953619,2.8978286429196594,-0.31835283295512196
1701792827476626000,7.7756259765625,-1.0810662207126618,2.3770722461789844,-0.192211255595088
1701792827486580000,7.785580078125,-1.2513596590101719,1.9534920290768145,-0.24328970092535018
1701792827496533000,7.795532958984375,-1.227968262028694,1.4093009807348251,-0.46003217118680473
1701792827506486000,7.805486083984375,-0.8162368881523608,0.6215764858394861,-0.4984808520466089
1701792827516439000,7.81543896484375,-0.215699098688364,-0.16200287207514047,-0.30599837829470633
1701792827526392000,7.82539208984375,0.2782055314838886,-0.704850981375575,0.17298866873085497
1701792827536345900,7.835345947265625,0.4364110571026802,-1.0996668762862682,0.8086065394043922
1701792827546299000,7.845298828125,0.043455695366859434,-1.376115042708814,1.3657260429024696
1701792827556251600,7.855251708984375,-0.6521715305894613,-1.658577939376235,1.5080255588591098
1701792827566204700,7.86520458984375,-1.261087272298336,-2.1786001766234637,1.4201122976064682
1701792827576157700,7.87515771484375,-1.565842372533679,-2.915875171741843,1.607314200606942
1701792827586110700,7.88511083984375,-1.715160242819786,-3.629613223928213,2.2887860599607226
1701792827596064800,7.895064697265625,-2.018842160865664,-4.343146693453193,3.269685687047243
1701792827606017800,7.905017822265625,-2.731661344641447,-5.00854829249382,4.085848340919614
1701792827615970800,7.914970703125,-4.477710062199831,-5.377346533572673,4.590136417940259
1701792827625923800,7.924923828125,-6.833351397815346,-5.434283057281375,4.68485819016397
1701792827635876900,7.934876953125,-8.768834891992807,-5.475113080319762,4.5252924821078775
1701792827645831000,7.944830810546875,-9.740599026465416,-5.73631019385755,4.414782189121842
1701792827655784000,7.954783935546875,-9.958047014647722,-6.02945259771049,4.2541789547115565
1701792827665737000,7.964737060546875,-10.049002127814292,-6.104453770419955,3.850542039963603
1701792827675690000,7.97468994140625,-10.642205336606501,-6.100138245308399,3.377228946921229
1701792827685643000,7.98464306640625,-11.72061315176487,-5.876621750867367,3.1277129188269375
1701792827695596000,7.994595947265625,-12.520938185036181,-5.529736066389083,3.041541532805562
1701792827705550000,8.004550048828126,-12.649930475652218,-5.211034858387708,3.1698581161171195
1701792827715503000,8.014503173828125,-12.352579514193534,-5.060810394650697,3.3764597161144017
1701792827725456000,8.024455810546876,-11.351768148934841,-5.114327465304732,3.612342940175533
1701792827735409000,8.034408935546875,-10.061412696576118,-5.057179344671964,3.9154076031059026
1701792827745362000,8.04436181640625,-9.245360517340899,-4.679662667347491,4.166334082520008
1701792827755315700,8.054315673828125,-8.94320712403655,-4.102906150965392,4.154873361828923
1701792827765268700,8.064268798828126,-8.892902001166343,-3.311238471402228,4.069962205001712
1701792827775221800,8.0742216796875,-8.82030496698916,-2.340181316155195,3.8211779983133076
1701792827785174800,8.0841748046875,-8.247926519560814,-1.5707862586766481,3.557607141381502
1701792827795127800,8.0941279296875,-7.659727402666211,-0.9683462888531387,3.1435785964787004
1701792827805080800,8.104080810546876,-7.318685768041014,-0.39621133132446557,2.7370056282788515
1701792827815035000,8.114034912109375,-7.239296004983783,0.27929984779292716,2.7347546344816682
1701792827824988000,8.12398779296875,-7.417340788060426,0.9738458361174911,2.768965531641245
1701792827834941000,8.13394091796875,-7.613945894700288,1.5095277801156044,2.577087453523278
1701792827844894000,8.14389404296875,-7.819483080336451,2.0762764049634335,2.27588507733345
1701792827854847000,8.153846923828125,-7.789320581784844,2.7308535353899,1.9698072040617465
1701792827864800000,8.163800048828126,-7.6172858527779574,3.1847277684688566,1.7732716555267571
1701792827874754000,8.173754150390625,-7.269819738063216,3.3583272625744343,1.8989122976273296
1701792827884706600,8.18370654296875,-6.657602616721391,3.607811141964793,1.8585002077400683
1701792827894659600,8.19365966796875,-5.870742629700898,4.146009379632771,1.7080132936745882
1701792827904612600,8.203612548828126,-5.2211365656852715,4.855983110849559,1.6016899309843777
1701792827914565600,8.213565673828125,-4.519256709074974,5.593983205372095,1.45934832945168
1701792827924519400,8.22351953125,-3.3909535208910704,6.356961381545663,1.3049480413347483
1701792827934472400,8.233472412109375,-2.1754501881599424,6.972053181540965,1.3143512449741364
1701792827944425500,8.243425537109376,-1.0206611441105604,7.378727272027731,1.7445161011636257
1701792827954378500,8.25337841796875,0.24158640413880347,7.460683086180686,2.1467709139034152
1701792827964331300,8.263331298828126,1.5031354487299917,7.494096695482731,2.2647557805538177
1701792827974284300,8.2732841796875,2.2823539810866116,7.5192346438705915,2.025814337965846
1701792827984238300,8.28323828125,2.6764485759854315,7.610574372440576,1.442309808628261
1701792827994191400,8.29319140625,2.837925086098909,7.900425333532691,0.7221297406956553
1701792828004144400,8.303144287109374,2.956532176300883,8.195464510917663,0.17834961124211549
1701792828014097400,8.313097412109375,3.2124066335111854,8.202553592395782,-0.01632189698666334
1701792828024050400,8.323050537109374,3.6134798352509736,7.970888862812519,0.16443915931135414
1701792828034003500,8.33300341796875,3.889512698870897,7.490165201252698,0.6444589103855193
1701792828043957500,8.34295751953125,3.855953543618321,6.91439769590795,1.2071794487610459
1701792828053910500,8.35291064453125,3.7229911803275346,6.445699987706542,1.495123845579475
1701792828063863600,8.362863525390624,3.446836736154556,6.075763682508469,1.4792381480529904
1701792828073816600,8.372816650390625,2.87397488912344,5.807507882630825,1.2294964945092797
1701792828083769600,8.38276953125,2.01802909091711,5.682415522062779,0.9288812705576419
1701792828093723600,8.3927236328125,1.1208400126963853,5.701327143281698,0.8603935713954269
1701792828103676700,8.4026767578125,0.5257213256716728,5.871507184332609,1.0391332048684359
1701792828113629700,8.412629638671875,0.4269821345001459,6.042400342088937,1.5266023951657115
1701792828123582700,8.422582763671874,0.4830056350171566,6.136747435781359,2.1039180067352947
1701792828133535500,8.432535400390625,0.5614741915762425,5.776234792488813,2.2516388170883057
1701792828143488500,8.442488525390624,0.8667302270710467,5.280546786031127,2.1369014079265294
1701792828153442300,8.4524423828125,1.2971703930705785,4.929616794598102,1.9000816336676478
1701792828163395300,8.462395263671874,1.6965560801148414,4.666285591641068,1.6478722748361527
1701792828173348400,8.472348388671875,1.8598358402580022,4.360696963191032,1.424540343181789
1701792828183301400,8.48230126953125,1.8801725258439779,3.9509868660092353,1.3277758130840955
1701792828193254400,8.49225439453125,1.9649837294280528,3.4617595799982546,1.2295976167961955
1701792828203207400,8.50220751953125,2.4879706616997717,3.0491549304187298,1.1718790027990937
1701792828213161500,8.512161376953125,3.1274294257104396,2.7311037107586857,1.1072957637295127
1701792828223114500,8.522114501953125,3.5831168456912037,2.29692260466516,1.1392921266447753
1701792828233067500,8.532067626953125,3.7086920213401315,1.944108114659786,1.120608030571416
1701792828243020500,8.5420205078125,3.4883822139859197,1.8687556442946194,1.0602066802963614
1701792828252973600,8.5519736328125,2.8753216275572777,1.961777626863122,0.8965942541327327
1701792828262927600,8.561927734375,2.080945273557305,2.000970404088497,0.660591714540869
1701792828272880600,8.571880615234376,1.3440192380070686,1.8588316316515205,0.3993332992698997
1701792828282833700,8.581833740234375,0.879383956938982,1.532956586498022,0.038527737445384264
1701792828292786700,8.59178662109375,0.8234849595844745,1.155717849332094,-0.12395729212351142
1701792828302739500,8.601739501953125,0.8803484180569648,0.9807716167926788,-0.004315378981083631
1701792828312692500,8.6116923828125,0.9547948794931173,1.0366174226552247,0.2525501350931823
1701792828322646300,8.621646240234375,0.9424877711057662,1.0547177274912596,0.5053988878067582
1701792828332599300,8.631599365234376,0.7227104631930589,1.0039578465908765,0.8715813203640281
1701792828342552300,8.64155224609375,0.3356365607112646,0.9243693460911512,1.0827774085447193
1701792828352505300,8.65150537109375,-0.2697305486053228,0.8469944299876689,1.1294249587554483
1701792828362458400,8.661458251953125,-0.5666489638656378,0.5552005181342363,0.6230279267568141
1701792828372411400,8.671411376953126,-0.31211481534838675,0.01587970617711544,0.0925114757630974
1701792828382365400,8.681365478515625,0.2835948233067989,-0.4090273756146431,-0.09641009063683449
1701792828392318500,8.691318359375,0.920087723249197,-0.386916081571579,0.07932385821416973
1701792828402271500,8.701271484375,1.1857581828087567,-0.19117957445979117,0.535337733670324
1701792828412224500,8.711224609375,0.9389093280971049,-0.0700742377012968,0.8293293016985058
1701792828422177500,8.721177490234375,0.5194324546605348,0.15593524259924887,0.9643902447037398
1701792828432131600,8.731131591796874,0.0038011458486318585,0.2619891406983137,1.062522994414717
1701792828442084600,8.741084716796875,-0.4993874454975128,0.367167425006628,1.0704083408370613
1701792828452037600,8.75103759765625,-0.4930956518769264,0.34997137553393837,1.0744507480956613
1701792828461990700,8.76099072265625,-0.18120704649984837,0.24232144041508435,1.199397270452231
1701792828471943400,8.770943359375,0.3504845857530832,0.2292120757341385,1.1199760893434285
1701792828481896400,8.780896484375,0.8355944995731115,0.5001061151608824,0.910070771625638
1701792828491850500,8.7908505859375,0.9453297165334225,0.9041904814153909,0.6438311338759959
1701792828501803500,8.800803466796875,1.2070552378594874,1.150854042688012,0.14129033891409634
1701792828511756500,8.810756591796874,1.3388719382464884,1.2221285960897803,-0.2142787104964256
1701792828521709600,8.82070947265625,1.6471254019916057,1.2244351194664835,-0.3585768529243767
1701792828531662600,8.83066259765625,2.246802775233984,1.2490145571887492,-0.2366908871822059
1701792828541615400,8.840615478515625,2.910539071410894,1.0326768683359027,0.07219371407330036
1701792828551569400,8.8505693359375,3.1498616222709415,0.8934344018623233,0.43144905078113077
1701792828561522400,8.8605224609375,2.5816800420105457,0.7376485046058893,0.4783418809898197
1701792828571475500,8.870475341796874,1.3354033853530882,-0.03080678780451417,0.05358998975977301
1701792828581428500,8.880428466796875,-1.4765262587457895,-0.6436421871751546,-0.0026125936511904
1701792828591381500,8.890381591796874,-3.361973510122299,-0.9584509177826345,-0.030592195205762982
1701792828601335600,8.90033544921875,-4.373164815098047,-1.0394907861344516,-0.15125607180707157
1701792828611288600,8.91028857421875,-4.535519861611724,-0.7958484723791479,-0.30771468069329855
1701792828621241600,8.92024169921875,-3.6404374002814293,0.005498159024864435,-0.4714395177228376
1701792828631194600,8.930194580078124,-3.7924867413580414,2.1293281961932777,0.4372537184718996
1701792828641147400,8.9401474609375,-2.8069004177600143,4.144475594194233,1.9412039176508784
1701792828651100400,8.950100341796874,-0.6670943744331598,1.6325189306207,0.9364912341047078
1701792828661054500,8.960054443359375,-0.5699748934179544,0.6738030782915652,0.10507065921537577
1701792828671007500,8.970007568359375,-1.3229454703181982,1.8819892198771238,0.4318004215020686
1701792828680960500,8.97996044921875,-1.853265814217925,2.5174638826876876,1.0573238914016634
1701792828690913500,8.98991357421875,-1.5938000545173883,1.8675550363332032,0.9811316822767258
1701792828700866600,8.999866455078125,-1.23209732465744,1.1992283436261117,0.4126270075418055
1701792828710819600,9.009819580078124,-0.8698708631843328,1.0293095838598907,0.11121654155924916
1701792828720773400,9.0197734375,-0.1894277623564005,0.7422035375617444,0.1807151713296771
1701792828730726400,9.029726318359375,0.6015875907778739,-0.007705898202210664,0.2301736142426729
1701792828740679400,9.039679443359375,0.8963824380129575,-0.8372352525174618,0.25650501019880173
1701792828750632400,9.049632568359375,0.4348427848726511,-1.2839593215808272,0.6329312619380653
1701792828760585500,9.05958544921875,-0.08660802387297153,-1.184177197227627,0.8689544789917767
1701792828770538500,9.06953857421875,-0.2941735004663467,-0.8806424325674772,0.8632748259201646
1701792828780492500,9.079492431640626,-0.511435026165843,-0.9901491014689207,0.5823696800887584
1701792828790445600,9.089445556640625,-0.9038029434025288,-1.4839309820443392,0.024656302350759506
1701792828800398600,9.099398681640626,-1.0292793348520994,-1.3759411474466323,-0.36625045629218217
1701792828810351400,9.109351318359375,-0.6966992391020059,-0.8994852263338863,-0.6367142876081169
1701792828820304400,9.119304443359376,0.2725081966251135,-0.5810295175261795,-0.6439579751260578
1701792828830257400,9.12925732421875,1.3644710744053126,-0.606597966285795,-0.7734092615559697
1701792828840211500,9.13921142578125,2.0442858142018316,-0.9382830128923058,-1.0917772920802236
1701792828850164500,9.14916455078125,1.9225953710317611,-1.452629250329733,-1.436699859791994
1701792828860117500,9.159117431640626,1.4804337875783442,-1.7729646354041992,-1.6030800701685248
1701792828870070500,9.169070556640625,0.7016606609016657,-1.860074909710884,-1.4986641485348342
1701792828880024000,9.179024169921876,0.00419452908039093,-1.7445919428788124,-1.3887689187072216
1701792828889977900,9.188977783203125,-0.7415577870041131,-1.364243549259752,-1.2427274397432804
1701792828899931000,9.198930908203126,-1.174134965032339,-0.7748965775042772,-1.171117370776832
1701792828909884000,9.2088837890625,-1.3320137429147958,-0.40571240584775803,-1.2576572978496552
1701792828919837000,9.2188369140625,-1.5600632046103478,-0.25709318535029885,-1.0799924540013075
1701792828929790000,9.2287900390625,-1.8051491413027048,-0.18384499378800392,-0.8377670213066041
1701792828939743000,9.238742919921876,-2.051006646889448,-0.13305237966179848,-0.7646021241135895
1701792828949697000,9.248697021484375,-2.29035783932209,-0.01636339804083109,-0.9441988128073513
1701792828959650000,9.258650146484374,-2.1860949162930248,0.16472148338407278,-1.5271059607736766
1701792828969603000,9.26860302734375,-1.7659861746937036,0.39746933202892537,-2.189618414244056
1701792828979555800,9.278555908203124,-1.4655933613210916,0.6325947234600782,-2.8352736948072907
1701792828989508900,9.2885087890625,-1.1167536201655863,0.9412252038240432,-2.984543049776554
1701792828999462000,9.2984619140625,-1.127968841663003,1.213393208709359,-2.7536235856026408
1701792829009416000,9.308416015625,-1.3051157991170883,1.2531649548664687,-2.4499990968324243
1701792829019369000,9.318368896484374,-1.614365872684121,1.2193813432082534,-1.9290726042218505
1701792829029322000,9.328322021484375,-1.80545601529479,1.2689032067462802,-1.4258946804001926
1701792829039275000,9.33827490234375,-1.5567413667112588,1.1684259397357701,-1.147847846609354
1701792829049228000,9.34822802734375,-0.9281821823775768,1.0615306223765015,-0.9558216652575879
1701792829059181000,9.35818115234375,-0.4972510179907083,1.146579434108734,-1.0578011535245924
1701792829069134800,9.368134765625,-0.4016927949428558,1.1638479642957449,-1.0753670592229814
1701792829079087900,9.378087890625,-0.4702139579832554,1.1887187861800192,-1.0279727092329412
1701792829089041000,9.388041015625,-0.4679664713174104,1.0863745562538505,-0.9927955973897129
1701792829098994000,9.397993896484374,-0.13278233054876326,0.9028113020166754,-0.6790773654326796
1701792829108947000,9.407947021484375,0.11773790615200996,0.8033832517981528,-0.29533538385257124
1701792829118901000,9.41790087890625,-0.31039807455837726,0.8537327983319759,-0.02504902799539268
1701792829128854000,9.42785400390625,-0.6122206284731626,0.7881976653650402,-0.2648866887707263
1701792829138807000,9.43780712890625,-0.37009003445506095,0.8323170853376388,-0.6035683162663131
1701792829148759800,9.447759765625,-0.25117899287045,1.0163356821268796,-0.5850299853391945
1701792829158712800,9.457712890625,0.10366086548268795,1.0305702514454722,-0.4047386654447764
1701792829168665900,9.467665771484375,0.5678039791196584,1.134208905096352,-0.06555610268972814
1701792829178620000,9.477619873046875,0.5948737723529338,1.2543608866527676,0.3616263766881078
1701792829188573000,9.487572998046875,0.034579145950078966,1.3558195659160612,0.5789807683028281
1701792829198526000,9.49752587890625,-0.5742646995663643,1.3734826483786104,0.4250054641323164
1701792829208479000,9.50747900390625,-0.9427607428282498,1.694063094255328,0.4974957499993965
1701792829218432000,9.517431884765625,-1.3516694604992865,1.9123191839501261,0.6349433324128388
1701792829228385000,9.527385009765625,-1.3713386220872401,1.81895905546844,0.45445575929395854
1701792829238339000,9.537339111328125,-1.0649082821160554,1.7291811693876982,0.32596038534939287
1701792829248292000,9.5472919921875,-0.517205426260829,1.562550637511909,0.4012823509784415
1701792829258244900,9.557244873046875,0.29585809255242346,1.3075132156476377,0.6839199831582605
1701792829268198000,9.567197998046876,1.057040617480874,0.9508058098569512,0.9551965190965682
1701792829278151000,9.57715087890625,1.6172762071728706,0.6602259499683976,1.0114494444552808
1701792829288104000,9.58710400390625,2.013136058178544,0.5732876712277531,0.8444952335830778
1701792829298058000,9.59705810546875,2.2399603619933126,0.4761763735190034,0.7018082526788115
1701792829308011000,9.607010986328126,2.4082675949096677,0.3405810313761234,0.7020986139275133
1701792829317963800,9.6169638671875,2.491583006978035,0.15563830547928809,0.659698638158664
1701792829327916800,9.626916748046876,2.3957447979450226,0.1361243344530463,0.4262644877500832
1701792829337869800,9.636869873046875,2.0735867274880406,0.326541984629631,0.1727727244252339
1701792829347822800,9.64682275390625,1.4691513460636139,0.3957975994244218,0.07520352231457364
1701792829357777000,9.65677685546875,0.8185486722260713,0.3027119039699435,0.2547170673361048
1701792829367730000,9.66672998046875,0.2520154436945915,0.17436638682484626,0.48717291076444086
1701792829377683000,9.676682861328125,0.055174190211296076,0.017690554991364477,0.6598783786397427
1701792829387636000,9.686635986328126,0.2592605925172567,-0.18116291509717702,0.6275608209460973
1701792829397589000,9.696589111328125,0.5388982026308775,-0.32497605048716066,0.5064041923917829
1701792829407543000,9.70654296875,0.7506722368299961,-0.36626726129651066,0.4851988342124968
1701792829417496000,9.71649609375,0.6158721367180348,-0.31230653852820395,0.37593627626523374
1701792829427449000,9.726448974609376,0.1818237170934677,-0.2916153404161334,0.1986264016007073
1701792829437402000,9.736402099609375,-0.3073246584624052,-0.32145079897046086,0.03797149180211126
1701792829447355100,9.746355224609376,-0.5152770885467529,-0.2644450094178319,-0.10061503151338547
1701792829457308200,9.75630810546875,-0.35385201635956764,-0.16663403900712728,-0.18321199311409145
1701792829467262000,9.766261962890624,0.007068038690090179,-0.17879764727056024,-0.30806232508718967
1701792829477215000,9.776215087890625,0.5604951174110174,-0.335163974763453,-0.14953454524409024
1701792829487167700,9.786167724609374,0.7963257345020771,-0.4044114062517881,0.32889282207209614
1701792829497120800,9.796120849609375,0.06763970403075217,-0.2866094949528575,0.5693959244862199
1701792829507073800,9.80607373046875,-1.0947411103218794,-0.11047609845548867,0.4789072597876191
1701792829517026800,9.81602685546875,-1.8042396252423525,-0.004458440713584423,0.26018157981969414
1701792829526980900,9.82598095703125,-1.830385873889923,0.10142916090786457,-0.01570734528489411
1701792829536934000,9.835933837890625,-1.4481862994462251,0.11056231543421745,-0.3889630041640252
1701792829546887000,9.845886962890624,-0.954357072597742,0.07694850738495587,-0.6650391954690218
1701792829556840000,9.85583984375,-0.26027941417098044,-0.11251871019899845,-0.8837539887167513
1701792829566793000,9.86579296875,0.8974877689063548,-0.40278643539845943,-1.2127635325036943
1701792829576746000,9.87574609375,1.5703566350877285,-0.3057800593689084,-0.8482379272427409
1701792829586700000,9.885699951171874,1.6659300557047128,-0.2591343357890844,-0.47976438807360827
1701792829596653000,9.895653076171875,1.1685235548913477,-0.2677045957356691,-0.10476592238144948
1701792829606606000,9.905606201171874,0.27298925814032554,-0.20003917274177074,0.22673563915062694
1701792829616559000,9.91555908203125,-0.6447089396238327,-0.10822452013641595,0.3915461525250226
1701792829626512100,9.92551220703125,-1.4524211605370043,-0.038027532838284965,0.5476525869727135
1701792829636465000,9.93546484375,-1.7480781775593757,0.3204498052343726,0.833050514178723
1701792829646419000,9.9454189453125,-1.7191408368885517,0.3840285434365272,1.1010606687322257
1701792829656371700,9.955371826171875,-1.7743208723187445,0.35014059462100267,1.523411636300385
1701792829666324700,9.96532470703125,-1.8892799614071845,0.2959285274401307,1.732179328290373
1701792829676277800,9.97527783203125,-1.9612381131589411,0.17030132934302092,1.728602346586436
1701792829686230800,9.985230712890624,-1.7908622572749853,0.26916969985216854,1.5749427938342093
1701792829696183800,9.995183837890625,-1.3573743941426277,0.38741760135293,1.275945818734169
1701792829706137900,10.005137939453125,-0.7276081721067428,0.47424686676114797,1.0086439585804938
1701792829716091000,10.0150908203125,-0.23161387617886064,0.5675134717404842,0.9197539612501859
1701792829726044000,10.0250439453125,0.10334230105280875,0.5935238190487027,0.805572578535974
1701792829735997000,10.034996826171875,0.2730541400700807,0.6620765462711453,0.6989832583859562
1701792829745950000,10.044949951171875,0.18473112897276878,0.6930509457275271,0.7723314031913876
1701792829755904000,10.054904052734376,-0.00043020811080932614,0.6354518664568662,0.7863324560150504
1701792829765857000,10.06485693359375,-0.28424831877946855,0.6393038657099008,0.8508808429669589
1701792829775810000,10.07481005859375,-0.5302531238824129,0.7286620650738477,1.172135242582485
1701792829785763000,10.08476318359375,-0.785613201829791,0.7509592370778322,1.5188367296002805
1701792829795716000,10.094716064453126,-0.9951029244840145,0.8043447903066873,1.9066518058381974
1701792829805668900,10.1046689453125,-1.2025187634736298,0.8840960801526904,2.1304218366488814
1701792829815623200,10.114623046875,-1.2349018606841564,0.8724693552449345,2.1074390204682945
1701792829825576200,10.124576171875,-0.9840940392136573,0.8797843544334173,1.9918639914385974
1701792829835529000,10.134529052734376,-0.5752683236509561,0.8901534804955125,1.6503225905977188
1701792829845482000,10.14448193359375,-0.07019874086380004,0.8773682332023978,1.2988193293213843
1701792829855435000,10.15443505859375,0.44369186176061626,0.8446633566915989,0.9860211348187178
1701792829865388000,10.164387939453125,0.9422025244235992,0.798765236608684,0.734996090400964
1701792829875341800,10.174341796875,1.1763795290887356,0.7983122321441769,0.5409694559469819
1701792829885294300,10.18429443359375,1.181045182812214,0.6964093162447214,0.3470125257283449
1701792829895247400,10.194247314453126,1.1004600724905729,0.5857935170575976,0.12749140280010177
1701792829905200400,10.204200439453125,1.0964888307720422,0.5160983418017625,-0.0709518607860431
1701792829915153400,10.2141533203125,1.2151526195973157,0.45739539294242854,-0.16883560417201368
1701792829925106400,10.2241064453125,1.4145669384390116,0.32029227658510206,-0.2204517365755513
1701792829935060500,10.234060546875,1.6758704349607227,0.28601591297388074,-0.23319210354732348
1701792829945013500,10.244013427734375,1.9691396800637244,0.19051263498365878,-0.16808769014785066
1701792829954966500,10.253966552734376,2.316646711310744,0.00677694678902626,-0.039186511881370095
1701792829964919600,10.26391943359375,2.488615389344096,-0.23466975661814213,0.10324119703220203
1701792829974872300,10.273872314453126,2.4404303273677823,-0.3676917411416769,0.26380192574132233
1701792829984825300,10.283825439453125,2.2843179746359588,-0.4496557386010885,0.43986631212309
1701792829994779400,10.293779296875,2.1311247242212294,-0.5289297663241624,0.5005962367653847
1701792830004732400,10.303732421875,1.8011024962604045,-0.49494624817967414,0.49899903070181606
1701792830014685400,10.313685546875,1.2452958289265632,-0.47359366354942317,0.4106247278086841
1701792830024638500,10.323638427734375,0.9112883307218551,-0.4736813418328762,0.32535390735622494
1701792830034591500,10.333591552734376,0.8053630274385213,-0.3888280526727438,0.3622673780053854
1701792830044544500,10.34354443359375,0.7866308544397353,-0.4170382481127977,0.350027380037494
1701792830054498600,10.35349853515625,0.8956050238996743,-0.5301069934099912,0.288499875276722
1701792830064451600,10.36345166015625,1.0587351464390755,-0.6326011532008647,0.2528083293716423
1701792830074404400,10.373404296875,1.170505668619275,-0.7090501866310834,0.19210425155665725
1701792830084357400,10.383357421875,1.1650398044288157,-0.7716366989254951,0.15065688207121566
1701792830094310400,10.393310302734376,0.8984247574955224,-0.758947313222289,0.05669354526568204
1701792830104263400,10.403263427734375,0.46267596369385716,-0.6952122154146433,-0.027511171192070468
1701792830114217500,10.413217529296874,-0.03191431065499782,-0.5945879411488771,-0.11580441733878105
1701792830124170500,10.42317041015625,-0.4395779967010021,-0.5264964016973972,-0.1979748788894154
1701792830134123500,10.43312353515625,-0.7003729591786861,-0.4822030864626169,-0.3740525083452463
1701792830144076300,10.443076171875,-0.7428922504782677,-0.36722120102047917,-0.6318194282386451
1701792830154029300,10.453029296875,-0.6787503254353999,-0.2646077987641096,-0.8139042804863303
1701792830163982300,10.462982421875,-0.6410474945068358,-0.21885142523944376,-0.9673028442148118
1701792830173936400,10.472936279296874,-0.7431120307087897,-0.22566636595129966,-1.0512361689858138
1701792830183889400,10.482889404296875,-0.8579267428904771,-0.4043243124902248,-1.1248253560055046
1701792830193842400,10.492842529296874,-0.7695932103991509,-0.5367477465987205,-1.1189827674571424
1701792830203795500,10.50279541015625,-0.5619312876939774,-0.6308171923935413,-1.0407636556144804
1701792830213748500,10.51274853515625,-0.5814519807219505,-0.8556587979584932,-0.8105146380480378
1701792830223702500,10.52270263671875,-0.9154033648252486,-1.1565116300582885,-0.41700178855992853
1701792830233655600,10.532655517578124,-1.611672980338335,-1.4264765719413757,-0.13690918295411392
1701792830243608600,10.542608642578125,-2.163807681161165,-1.5160849466741084,0.0019499102250672875
1701792830253561600,10.5525615234375,-2.280126368165016,-1.3940426213264465,0.11516263057021424
1701792830263514600,10.5625146484375,-1.9449276143491268,-1.1725713689774273,0.142630236615194
1701792830273467600,10.572467529296874,-1.5413123269110918,-0.7756786677926778,0.03350711453808471
1701792830283421400,10.58242138671875,-1.3253256434530019,-0.2945399956911802,-0.13848141897320745
1701792830293374500,10.59237451171875,-1.3828098641723394,0.21369477312862872,-0.2511117728531361
1701792830303327500,10.602327392578125,-1.673236579325795,0.6609118864059448,-0.46694450785852964
1701792830313280300,10.6122802734375,-1.9853496411085128,1.0021300466418266,-0.7681741373814642
1701792830323233300,10.6222333984375,-1.7807874379843471,1.239125031337142,-0.9531385636534542
1701792830333186300,10.632186279296874,-1.0242711513012648,1.2809540022850037,-0.8825327763587236
1701792830343140400,10.642140380859376,-0.17956921616494653,1.0202625001817942,-0.5780488942801952
1701792830353093400,10.65209326171875,0.6158826581120491,0.6458557715713977,-0.24086413601255044
1701792830363046400,10.66204638671875,1.1395908903956413,0.4071948994904756,-0.11602626166222617
1701792830372999400,10.67199951171875,1.3256447924047707,0.17387071226239204,-0.27866500222180035
1701792830382952400,10.681952392578125,1.313079909864068,0.21714345227777956,-0.7269956662315875
1701792830392905500,10.691905517578125,1.3039835802167654,0.4383177675068378,-1.3410088041447101
1701792830402859500,10.701859619140626,1.4023311417222022,0.5688765767872334,-1.8359889545939863
1701792830412812500,10.7118125,1.2932482511907815,0.8062415638387203,-1.8203819278784095
1701792830422765600,10.721765625,1.0503116014868021,0.7969447431832551,-1.7975363282114267
1701792830432718600,10.731718505859375,1.0435171190410852,0.8588000185936688,-2.0589419699333606
1701792830442671600,10.741671630859376,0.8240800028681755,1.2338052976191043,-1.521305896192789
1701792830452624600,10.751624755859375,0.23225626573562622,1.3140771042078732,-1.070484109487012
1701792830462578400,10.761578369140626,-0.31114275544583797,1.1303607052356004,-0.6367272201549261
1701792830472531500,10.771531494140625,-0.7115455105781555,1.1497317606598139,-0.16815951327504589
1701792830482484200,10.781484130859376,-1.103615321651101,1.1660369987726211,0.03559736481560394
1701792830492437200,10.791437255859375,-1.4402297874838113,1.208283318349719,-0.01147036530226469
1701792830502390300,10.801390380859376,-1.551148076748848,1.2899895416557787,-0.18602060252772643
1701792830512343300,10.81134326171875,-1.3588929820120335,1.3204191667109728,-0.44451961782164867
1701792830522297300,10.82129736328125,-0.9962228684246539,1.36167822881639,-0.7125592176653445
1701792830532250400,10.83125048828125,-0.47845513210594653,1.3516028250038623,-0.842601309595257
1701792830542203400,10.841203369140626,0.018116671448946,1.2779647573411463,-0.8372653553947806
1701792830552156400,10.851156494140625,0.48045711957812304,1.1067588803738355,-0.7202480186022817
1701792830562109400,10.861109375,0.8871820634692906,0.8799059349864721,-0.5302849803254008
1701792830572062500,10.8710625,1.0127426260709762,0.6713958710193634,-0.32229221823066473
1701792830582016500,10.8810166015625,0.9867384162425994,0.47367198948264116,-0.20517450806992127
1701792830591969500,10.890969482421875,0.9570715922534465,0.4260357935607433,-0.14653441358003763
1701792830601922600,10.900922607421874,0.9366764544785022,0.34487434465587136,-0.13922429149607196
1701792830611875600,10.91087548828125,1.014244262805581,0.26044951004087924,-0.11889885795647277
1701792830621828600,10.92082861328125,1.240890871965885,0.11639876650273799,0.006361844915803522
1701792830631781400,10.930781494140625,1.4631044671148061,-0.033818682971596715,0.06391348658185451
1701792830641735700,10.940735595703124,1.4770534974902867,-0.11034370424747467,0.06634659548029304
1701792830651688400,10.9506884765625,1.2113316000044345,-0.1426104816019535,0.007523910965118557
1701792830661641500,10.960641357421874,0.9082347883701324,-0.15448387474715708,0.01704151649810374
1701792830671594500,10.970594482421875,0.7394032393187284,-0.1771574788480997,0.05364383883886039
1701792830681547500,10.980547607421874,0.8200947326242923,-0.27081132957935333,0.02046456801565364
1701792830691500500,10.99050048828125,1.1783739177763461,-0.43187633628249167,0.0022957279880531133
1701792830701454300,11.000454345703124,1.581314082431793,-0.6121896488130092,0.08791786436252295
1701792830711407400,11.010407470703125,1.8678671710222958,-0.7723901476413011,0.22347660082206128
1701792830721360400,11.0203603515625,1.94706637994349,-0.8859189116656779,0.4249596156965941
1701792830731313400,11.0303134765625,1.45496558432281,-1.023487307447195,0.6060949851997196
1701792830741266400,11.040266357421874,0.28865269121825693,-1.1906412786751985,0.6437434555925429
1701792830751219500,11.050219482421875,-0.9832166718572377,-1.1917010168612003,0.5620390589173883
1701792830761173500,11.060173583984374,-2.0349393091857433,-0.8164999230027198,0.6062244202656671
1701792830771126500,11.07012646484375,-2.8626959547400475,-0.28569676402211186,0.7497601634863763
1701792830781079600,11.08007958984375,-3.373200422057509,0.13084931665956973,0.7345978117983788
1701792830791032600,11.090032470703125,-3.491522265577316,0.21905308529138565,0.7372703920084983
1701792830800985300,11.0999853515625,-3.035685792514682,-0.027349779218435285,0.7346142514765263
1701792830810938400,11.1099384765625,-2.4950468836963173,-0.32750469218194483,0.8625441735580563
1701792830820892400,11.119892333984374,-2.1372551898002623,-0.5154144511908293,1.042684906000644
1701792830830845400,11.129845458984375,-1.5639169574290512,-0.623532880604267,1.2492077416732907
1701792830840798500,11.139798583984375,-1.0376280610024928,-0.7227642392069101,1.4985088118426502
1701792830850751500,11.14975146484375,-0.6948281845331191,-0.9292191242098807,1.4648738148748874
1701792830860704500,11.15970458984375,-0.5101473244428635,-1.087833815151453,1.3904092332601548
1701792830870657500,11.169657470703125,-0.6111205582767725,-1.0996446644544602,1.4908185496009885
1701792830880611600,11.179611572265625,-0.8945943855524062,-0.8727712608009577,1.748708730547875
1701792830890564600,11.189564697265626,-1.22959849357903,-0.4746212530314922,2.1170776402987537
1701792830900517600,11.199517578125,-1.5033517218291759,-0.0046545478075742715,2.514964174826443
1701792830910470700,11.209470703125,-1.7821078729331492,0.3957072907924652,2.6896529254734514
1701792830920423700,11.219423583984375,-2.2355086432814595,0.6622644700586795,2.577199097204208
1701792830930376700,11.229376708984375,-2.5900118170261384,0.866461347001791,2.402224076961726
1701792830940329700,11.239329833984375,-2.6035586963415143,0.8824234707653522,2.1570444706365466
1701792830950283800,11.24928369140625,-2.243281615370512,0.7885235363185406,2.0715914620175955
1701792830960236800,11.25923681640625,-1.6356383778154848,0.7250070496976375,2.145307709483057
1701792830970189800,11.26918994140625,-0.9734534027338028,0.6697083563238382,2.255545176877081
1701792830980142800,11.279142822265625,-0.14891864183545112,0.6306932737529277,2.409682430143654
1701792830990096000,11.289095947265626,0.5602864430963993,0.5747171195089816,2.3008330561071633
1701792831000050000,11.2990498046875,0.9273924933046102,0.5052420167446137,1.9484573959104716
1701792831010003000,11.3090029296875,1.2196686357170343,0.492926725050807,1.69479637696594
1701792831019955700,11.318955810546875,1.5603075347602366,0.5250134696632623,1.5902980377458036
1701792831029908700,11.32890869140625,1.7410767743647098,0.49358489669859407,1.561093716701865
1701792831039861800,11.33886181640625,1.660780417856574,0.3467956681072712,1.551089186168462
1701792831049814800,11.348814697265626,1.5360849476516245,0.3319593335032463,1.6994586696885525
1701792831059768600,11.3587685546875,1.4093933351933956,0.52809506906569,1.9368195650868116
1701792831069721600,11.3687216796875,1.2277116569191218,0.6738683986127376,1.9010048859924076
1701792831079674600,11.378674560546875,0.647190819567442,0.8772247330784797,1.609609179676324
1701792831089627600,11.388627685546876,-0.21652970429360865,1.1033680688917635,1.2853949073418973
1701792831099580700,11.39858056640625,-1.0633587145864962,1.1757143431782722,0.980697893969342
1701792831109533700,11.40853369140625,-1.4330880990356205,1.285721947339177,0.7949108992680907
1701792831119487700,11.41848779296875,-1.4811948350787163,1.4584037420779465,0.5680150645870715
1701792831129440800,11.428440673828124,-1.3408780173718928,1.4183721759408712,0.2444778877966106
1701792831139393800,11.438393798828125,-0.7739876459658146,1.3216425710260866,0.0059309974841773505
1701792831149346800,11.448346923828124,-0.060435471740365024,1.2327590034365654,-0.14582900525704026
1701792831159299800,11.4582998046875,0.42567923520803447,1.0465186389446257,-0.2860175934743136
1701792831169252600,11.468252685546876,0.6677671591281891,0.8614297825753688,-0.46175030021630226
1701792831179207000,11.47820703125,0.8801835828840732,0.7847317428201437,-0.6963401234660297
1701792831189159700,11.48815966796875,1.3188994097977875,0.7438280700236558,-0.898547653222829
1701792831199112700,11.49811279296875,1.8633634298622608,0.7041413718014955,-0.9989246016640215
1701792831209065700,11.508065673828124,2.2957465466231106,0.5824503441095352,-1.0669320430286229
1701792831219018800,11.518018798828125,2.5441069749414917,0.3462701829284429,-1.0996139039900152
1701792831228971800,11.5279716796875,2.6318063011825084,0.19330138891935347,-1.027104182770103
1701792831238924800,11.5379248046875,2.3980244333148,0.09492343227565288,-0.8785019134074449
1701792831248878600,11.547878662109374,1.926077367928624,-0.0552951862424612,-0.5904751720678061
1701792831258831600,11.55783154296875,1.4313222584068774,-0.30268121657073493,-0.13227195160752162
1701792831268784600,11.56778466796875,1.1046183612138032,-0.4589548973441124,0.2833448306011036
1701792831278737700,11.577737548828125,0.9522796818017959,-0.5827414360105991,0.6210255008932203
1701792831288690700,11.587690673828124,1.0236001201719045,-0.8446411448597908,0.8293632770333439
1701792831298643700,11.597643798828125,1.3057108424007893,-0.9528343930751084,0.7149551728911697
1701792831308597800,11.60759765625,1.4144962112903594,-0.9402671724468469,0.5613190740797669
1701792831318550800,11.61755078125,1.2437503530502318,-0.875832986459136,0.36014472329560665
1701792831328503800,11.62750390625,0.8525871354281902,-0.8065840936660766,0.04442471392895095
1701792831338456600,11.63745654296875,0.31556115640997884,-0.8039473154217004,-0.17090846492331474
1701792831348409600,11.64740966796875,-0.2191115374803543,-0.7714449757456779,-0.297658036380168
1701792831358362600,11.657362548828125,-0.753016754129529,-0.7248562430500983,-0.3910802885789424
1701792831368316700,11.667316650390624,-1.0895546475946902,-0.677616352969408,-0.3803998315453529
1701792831378269700,11.677269775390625,-1.194043780595064,-0.6964858886122703,-0.385915197433345
1701792831388222700,11.68722265625,-1.3003975384235382,-0.8487667003571987,-0.38369638887271285
1701792831398175700,11.69717578125,-1.4241431605577468,-1.042021912047267,-0.3471806853694841
1701792831408128800,11.707128662109374,-1.235253158339858,-1.160302254512906,-0.3562976559460163
1701792831418081800,11.717081787109375,-1.1309142474651337,-1.1908622279495,-0.5132307504761964
1701792831428035800,11.727035888671875,-0.9352584043741226,-1.0893827981591224,-0.631381986669451
1701792831437988900,11.73698876953125,-0.7501607801765203,-0.9559726911008357,-0.6110933780089021
1701792831447942000,11.74694189453125,-0.48297640892267224,-0.8908926084250212,-0.4801709230478853
1701792831457895000,11.75689501953125,-0.23670272375047205,-0.6643781012117862,-0.3309050752099603
1701792831467848000,11.766847900390625,-0.34938510007858276,-0.2551888130337,-0.09860831306716426
1701792831477801000,11.776801025390625,-1.0112532642960548,0.2641910346567631,0.04121003533191979
1701792831487754800,11.786754638671875,-2.162103215330839,0.7357154907166957,0.06847608178965747
1701792831497707800,11.796707763671876,-3.0887060195624825,1.1177730263411998,-0.09245383642488159
1701792831507660500,11.80666064453125,-3.5749621808081864,1.4546306532800197,-0.24333766825292258
1701792831517613600,11.816613525390625,-3.453428389504552,1.5912182213306425,-0.3104545539859682
1701792831527566600,11.826566650390625,-2.6974013476431367,1.6089192977160214,-0.40442452146168795
1701792831537519600,11.83651953125,-1.5915660118550061,1.3973510152220725,-0.42210524917878206
1701792831547473700,11.8464736328125,-0.391973949483037,1.0227239218592643,-0.44368214408420026
1701792831557426700,11.8564267578125,0.7330570851624012,0.6569388911217451,-0.4402773771420121
1701792831567379700,11.866379638671875,1.4568851542085408,0.40168753424584863,-0.5138890682544559
1701792831577332700,11.876332763671876,1.5992998209774494,0.3171095548957586,-0.6719120038479566
1701792831587285800,11.88628564453125,1.3498527664661406,0.367098451423645,-0.8102205504722892
1701792831597238800,11.89623876953125,1.017028925088048,0.4956669636696577,-0.8830278663992881
1701792831607191800,11.90619189453125,0.7687456536591053,0.6074474227219819,-0.9869596577778458
1701792831617145900,11.916145751953126,0.5586427675426006,0.710164285352826,-0.9482598517011851
1701792831627099000,11.926098876953125,0.3170265527874231,0.7696458173692226,-0.811019299634546
1701792831637052000,11.936052001953126,-0.03026537440419197,0.787177966928482,-0.5934255463059991
1701792831647005000,11.9460048828125,-0.2787584891915321,0.7056950309842824,-0.3080162574557587
1701792831656957700,11.955957763671876,-0.4997644621163606,0.6655126581996679,0.05521868694014847
1701792831666911700,11.965911865234375,-0.7946551709413529,0.6057201605379581,0.2554177264187485
1701792831676864500,11.975864501953126,-1.1235773287057875,0.6033569385379552,0.3008739114204421
1701792831686817500,11.985817626953125,-1.4882026680141687,0.7033347315937281,0.2447862048271112
1701792831696770600,11.9957705078125,-1.6035978104323148,0.778188604786992,0.13045083712758496
1701792831706723600,12.0057236328125,-1.5367448728650808,0.9103846598803996,-0.010372048671543597
1701792831716676600,12.015676513671876,-1.5323954454839228,0.9550894785255193,-0.15765468680299818
1701792831726629600,12.025629638671875,-1.5238842222481965,0.9537702126204967,-0.314550956454128
1701792831736583700,12.035583740234374,-1.3558078754782676,0.975825392562151,-0.2771835314923897
1701792831746536700,12.04553662109375,-1.1055413212776184,0.9002613252729177,-0.18128436778606846
1701792831756489700,12.05548974609375,-0.6360469097405672,0.7084633266538382,-0.1415985280804336
1701792831766442800,12.06544287109375,-0.1767220100402832,0.4428694394618273,-0.1361514690551441
1701792831776395800,12.075395751953126,0.16856676063537596,0.19154548516273498,-0.048883300773007794
1701792831786348800,12.085348876953125,0.4647042546510696,-0.05629647223949432,0.08083868322391062
1701792831796302800,12.095302734375,0.760353672888875,-0.20209844335913657,0.2082675969807431
1701792831806255900,12.105255859375,0.9552835397928953,-0.24751170253455637,0.27639154086448253
1701792831816209000,12.115208984375,0.9659949034214019,-0.29640520504117013,0.31411665669009087
1701792831826161700,12.12516162109375,0.8539315357744693,-0.2248106259047985,0.40126302522346374
1701792831836114700,12.13511474609375,0.4384399325817823,-0.1173918691933155,0.45700321528706694
1701792831846067700,12.145067626953125,-0.015171265646815299,-0.025926468417048452,0.349974371208623
1701792831856021800,12.155021728515624,-0.26030980930924413,0.135835872900486,0.13329854557574725
1701792831865974800,12.164974853515625,-0.1910965723514557,0.2533452309936285,-0.16034217232130468
1701792831875927800,12.174927734375,0.11145546488165854,0.3012672581195831,-0.47580366774909194
1701792831885881000,12.184881103515625,0.48858840358555317,0.21499358076751232,-0.7589407373510301
1701792831895834000,12.194834228515624,0.9173474846303462,0.13265198216736315,-0.9381587289255112
1701792831905787100,12.204787109375,1.2865309256345032,0.10290215606987475,-0.9481324989944696
1701792831915741200,12.2147412109375,1.430662917715311,0.05291793571710586,-0.8191307829629629
1701792831925694200,12.224694091796875,1.377487792366743,-0.04370820882320404,-0.5867652116339653
1701792831935647000,12.23464697265625,1.1537193689912557,-0.11181962201893329,-0.32409912152215836
1701792831945600000,12.24460009765625,0.7323404613256455,-0.11472001963555813,-0.046654327011387796
1701792831955553000,12.254552978515624,0.23464579122066495,-0.07580722839534282,0.126102761453297
1701792831965506000,12.264506103515625,-0.31980478532910345,0.131757079154253,0.16931573410546405
1701792831975460000,12.274460205078125,-0.8679109612882137,0.2752911053419113,0.032674938030261544
1701792831985413000,12.2844130859375,-1.3679098166823387,0.26168343575000763,-0.28525117567908015
1701792831995366100,12.2943662109375,-1.5975982777565716,0.2292629291385412,-0.4618564640045166
1701792832005319200,12.304319091796875,-1.4718693728506564,0.12662556148469448,-0.5157045201785863
1701792832015272200,12.314272216796875,-1.054758059501648,-0.12910276525318623,-0.5888009552452713
1701792832025225200,12.32422509765625,-0.4931950205981731,-0.33302900856137274,-0.4828808761263266
1701792832035179300,12.33417919921875,0.05378887333273887,-0.568593668192625,-0.27116233497411013
1701792832045132300,12.34413232421875,0.4670931956142187,-0.6030535716772079,0.14578726674085482
1701792832055085000,12.3540849609375,0.5093073664873838,-0.46111938190162177,0.7837823331408202
1701792832065038000,12.3640380859375,0.07874561993479728,-0.25605273638665677,1.4203474215365945
1701792832074991000,12.3739912109375,-0.6725520553171634,0.15967735173702238,1.897230482020229
1701792832084944100,12.383944091796875,-1.4492074591875075,0.6424345649510622,2.10859915028885
1701792832094898200,12.393898193359375,-2.175271908983588,1.0140741669356823,2.0903271421477196
1701792832104851000,12.403850830078126,-2.612123695591092,1.2779378693342207,1.9246514267787336
1701792832114804000,12.413803955078125,-2.541134681132436,1.3814298079907894,1.5709255210168658
1701792832124757000,12.423757080078126,-1.8361662108570336,1.3459066591888664,1.3061458728171884
1701792832134710000,12.4337099609375,-0.7078022323966026,1.0999310801804065,1.0226249915294348
1701792832144663000,12.4436630859375,0.5807113914877176,0.8520604812055825,0.9128997114412486
1701792832154616000,12.453615966796875,1.731607519751787,0.6415875927329063,0.9557690582875161
1701792832164570000,12.463570068359376,2.4150831201434135,0.4338549428790808,1.0872918172292412
1701792832174523100,12.473523193359375,2.5356349146723747,0.29850363862514495,1.08361020610705
1701792832184476200,12.48347607421875,2.3567045809328553,0.32101240755319593,1.1146762293696404
1701792832194429200,12.49342919921875,1.9316402627527713,0.3805746035903692,1.3776504355825483
1701792832204382200,12.50338232421875,1.464689690479636,0.28316695328354835,1.7391009442470966
1701792832214335200,12.513335205078125,0.9295406112492084,0.10927812084257602,2.145729003635049
1701792832224289300,12.523289306640624,0.46350832286477084,0.008085691300034522,2.4984832878857848
1701792832234242300,12.5332421875,0.034191607937216754,0.009489712879061698,2.7141142897740003
1701792832244195300,12.5431953125,-0.366619143474102,0.10108663108050822,2.741905967541039
1701792832254148000,12.553148193359375,-0.5823141505092382,0.28458149625658985,2.6101369056880475
1701792832264101000,12.56310107421875,-0.5717541780501604,0.47710254845321176,2.4671762954741716
1701792832274054100,12.57305419921875,-0.5425076252996921,0.6092910047620534,2.2996631355449555
1701792832284008000,12.583008056640624,-0.5077408478230238,0.7151946807354688,2.1198647867992517
1701792832293961000,12.5929609375,-0.6002116262495517,0.7932154935270548,1.9143311082944272
1701792832303914000,12.6029140625,-0.8194003206193446,0.9075181645333766,1.6924151809178292
1701792832313867000,12.612866943359375,-1.1198574313998222,0.9827934780091047,1.4894197887189686
1701792832323820000,12.622820068359376,-1.2910457727104425,0.9406488652408123,1.299724461467564
1701792832333773000,12.63277294921875,-1.1847551432460546,0.8317991989433765,1.2518031649939716
1701792832343727000,12.64272705078125,-0.8908750727683306,0.6788000097960233,1.303030371145159
1701792832353680100,12.65268017578125,-0.43489772993028164,0.4702075282424688,1.304558749756217
