time,seconds_elapsed,z,y,x
1701816357314708000,0.0167080078125,0.1207360029220581,-0.09457683563232422,0.08326346427202225
1701816357324660000,0.026659912109375,0.13127146661281586,-0.10458606481552124,0.105929896235466
1701816357334613000,0.036613037109375,0.13587048649787903,-0.10985299944877625,0.11970775574445724
1701816357344566000,0.04656591796875,0.13335619866847992,-0.11029668152332306,0.12651373445987701
1701816357354519000,0.05651904296875,0.13174204528331757,-0.10837068408727646,0.12517869472503662
1701816357364472000,0.06647216796875,0.12650734186172485,-0.12440184503793716,0.10618636012077332
1701816357374425000,0.076425048828125,0.1347799152135849,-0.14086124300956726,0.06994180381298065
1701816357384377000,0.086377197265625,0.14468954503536224,-0.14485172927379608,0.04631583392620087
1701816357394330000,0.096330078125,0.1352883130311966,-0.13947108387947083,0.039930637925863266
1701816357404283100,0.106283203125,0.12416988611221313,-0.12684662640094757,0.04314214363694191
1701816357414236200,0.116236083984375,0.11554257571697235,-0.10415809601545334,0.04761545732617378
1701816357424189200,0.126189208984375,0.10321640223264694,-0.08269701153039932,0.050212569534778595
1701816357434141200,0.13614111328125,0.0907197818160057,-0.06309214979410172,0.048631452023983
1701816357444094200,0.14609423828125,0.08022213727235794,-0.049067676067352295,0.04412085562944412
1701816357454047000,0.156046875,0.07430964708328247,-0.0400848351418972,0.028119519352912903
1701816357464000000,0.166,0.06647569686174393,-0.03597238287329674,0.007384679280221462
1701816357473953000,0.175953125,0.06126522272825241,-0.029800506308674812,-0.018515361472964287
1701816357483905500,0.185905517578125,0.05275722220540047,-0.01410703081637621,-0.04386119917035103
1701816357493857300,0.195857177734375,0.04598906263709068,0.0031321437563747168,-0.07799013704061508
1701816357503810300,0.205810302734375,0.035290878266096115,0.02779274806380272,-0.1091533824801445
1701816357513763300,0.215763427734375,0.02376977726817131,0.04330246523022652,-0.13829396665096283
1701816357523716400,0.22571630859375,0.009953830391168594,0.03765443339943886,-0.15794382989406586
1701816357533669400,0.23566943359375,-0.0028764803428202868,0.01792174205183983,-0.19110390543937683
1701816357543622400,0.245622314453125,-0.008539159782230854,-0.00011904330312972888,-0.22207461297512054
1701816357553574700,0.25557470703125,-0.02068929933011532,-0.018570488318800926,-0.24158918857574463
1701816357563527400,0.26552734375,-0.03382214531302452,-0.030961377546191216,-0.24085016548633575
1701816357573480400,0.27548046875,-0.0510123185813427,-0.045408494770526886,-0.2345925271511078
1701816357583433500,0.28543359375,-0.06604479998350143,-0.061827681958675385,-0.22442537546157837
1701816357593386500,0.295386474609375,-0.08267544209957123,-0.0709838941693306,-0.2098861187696457
1701816357603338500,0.30533837890625,-0.0982125848531723,-0.07280762493610382,-0.19351966679096222
1701816357613291500,0.31529150390625,-0.11116806417703629,-0.06899504363536835,-0.1791982501745224
1701816357623244500,0.32524462890625,-0.12395469844341278,-0.06341519206762314,-0.17081542313098907
1701816357633197600,0.335197509765625,-0.13014282286167145,-0.06545384228229523,-0.16025012731552124
1701816357643150300,0.345150390625,-0.13859356939792633,-0.07726415991783142,-0.14647333323955536
1701816357653103400,0.355103271484375,-0.1465228646993637,-0.09285643696784973,-0.1258213073015213
1701816357663055400,0.365055419921875,-0.16135241091251373,-0.11094462871551514,-0.10186697542667389
1701816357673008400,0.37500830078125,-0.17512840032577515,-0.12341754138469696,-0.07683006674051285
1701816357682961400,0.38496142578125,-0.19304348528385162,-0.12352912873029709,-0.05053720995783806
1701816357692914400,0.39491455078125,-0.2115950733423233,-0.11133983731269836,-0.02149384096264839
1701816357702867500,0.404867431640625,-0.22559477388858795,-0.0904657170176506,0.008335161954164505
1701816357712820500,0.414820556640625,-0.23020604252815247,-0.06789223104715347,0.044605549424886703
1701816357722772500,0.4247724609375,-0.22489622235298157,-0.05703692138195038,0.08880257606506348
1701816357732725500,0.4347255859375,-0.2093537598848343,-0.05603237450122833,0.13401000201702118
1701816357742678500,0.444678466796875,-0.1901659518480301,-0.05849207192659378,0.18054527044296265
1701816357752631600,0.454631591796875,-0.17323996126651764,-0.06125430390238762,0.21785429120063782
1701816357762584300,0.464584228515625,-0.16619296371936798,-0.06506714969873428,0.23989860713481903
1701816357772536600,0.47453662109375,-0.14866377413272858,-0.059912603348493576,0.23113387823104858
1701816357782489600,0.484489501953125,-0.14239682257175446,-0.043894488364458084,0.2044982761144638
1701816357792442600,0.494442626953125,-0.15010854601860046,-0.022246450185775757,0.17576037347316742
1701816357802395400,0.5043955078125,-0.15729054808616638,-0.007537544704973698,0.1484541893005371
1701816357812348400,0.514348388671875,-0.1541123390197754,0.010181797668337822,0.1192488968372345
1701816357822301400,0.524301513671875,-0.14165273308753967,0.02021019719541073,0.0838932991027832
1701816357832253400,0.53425341796875,-0.11437584459781647,0.02412504330277443,0.05950460582971573
1701816357842206500,0.54420654296875,-0.07116099447011948,0.024295486509799957,0.048461008816957474
1701816357852159500,0.554159423828125,-0.030071616172790527,0.01011095754802227,0.059792228043079376
1701816357862112500,0.564112548828125,0.005543369799852371,-0.016272712498903275,0.08218888193368912
1701816357872065500,0.5740654296875,0.048286307603120804,-0.033182453364133835,0.08771014213562012
1701816357882018600,0.5840185546875,0.06210891157388687,-0.028748290613293648,0.07483509182929993
1701816357891970300,0.59397021484375,0.05949581786990166,-0.027782095596194267,0.04556615278124809
1701816357901923300,0.60392333984375,0.0580100379884243,-0.021759090945124626,0.010368218645453453
1701816357911876400,0.61387646484375,0.06401333957910538,-0.01871163584291935,-0.020061325281858444
1701816357921829400,0.623829345703125,0.06940756738185883,-0.016225840896368027,-0.04484816640615463
1701816357931782400,0.633782470703125,0.07571925967931747,-0.01690175198018551,-0.05926172435283661
1701816357941734700,0.643734619140625,0.08411647379398346,-0.021739384159445763,-0.06102926656603813
1701816357951687400,0.6536875,0.0920441746711731,-0.03801742196083069,-0.05427149310708046
1701816357961640400,0.663640380859375,0.08975758403539658,-0.05735330283641815,-0.04356851428747177
1701816357971593500,0.673593505859375,0.08326373249292374,-0.07935208082199097,-0.029696909710764885
1701816357981546500,0.68354638671875,0.07351282984018326,-0.09743627160787582,-0.02677648700773716
1701816357991499500,0.69349951171875,0.06686291843652725,-0.10355355590581894,-0.03238989785313606
1701816358001451500,0.703451416015625,0.06022658944129944,-0.1140914186835289,-0.04751931503415108
1701816358011404500,0.713404541015625,0.05751815438270569,-0.10421721637248993,-0.06226737052202225
1701816358021357600,0.723357666015625,0.058221492916345596,-0.08700733631849289,-0.08016461133956909
1701816358031310600,0.733310546875,0.05812269076704979,-0.06958067417144775,-0.09136639535427094
1701816358041263400,0.743263427734375,0.05694850534200668,-0.053825948387384415,-0.09256135672330856
1701816358051216400,0.75321630859375,0.05445631593465805,-0.048349421471357346,-0.08449411392211914
1701816358061168400,0.76316845703125,0.04957127943634987,-0.05497616529464722,-0.07324198633432388
1701816358071121400,0.773121337890625,0.04307423159480095,-0.06546396017074585,-0.06360694020986557
1701816358081074400,0.783074462890625,0.03039199486374855,-0.07728573679924011,-0.05691548064351082
1701816358091027500,0.79302734375,0.011288873851299286,-0.08414310961961746,-0.05503928288817406
1701816358100980500,0.80298046875,-0.006079464219510555,-0.08646245300769806,-0.05729977414011955
1701816358110933500,0.81293359375,-0.017884723842144012,-0.08168474584817886,-0.05919434875249863
1701816358120885200,0.82288525390625,-0.027000725269317627,-0.074830561876297,-0.053529538214206696
1701816358130838300,0.83283837890625,-0.030597589910030365,-0.06902620196342468,-0.04092000424861908
1701816358140791300,0.842791259765625,-0.029034847393631935,-0.06226390600204468,-0.0295493695884943
1701816358150744300,0.852744384765625,-0.030473753809928894,-0.053947653621435165,-0.023090139031410217
1701816358160697300,0.862697265625,-0.03460458293557167,-0.05108528956770897,-0.018400579690933228
1701816358170649600,0.872649658203125,-0.041492849588394165,-0.04952707141637802,-0.020737236365675926
1701816358180602600,0.8826025390625,-0.04806632921099663,-0.051709000021219254,-0.023790551349520683
1701816358190555400,0.892555419921875,-0.05792774632573128,-0.044011134654283524,-0.020731642842292786
1701816358200508400,0.90250830078125,-0.06536968797445297,-0.042449988424777985,-0.010361294262111187
1701816358210461400,0.91246142578125,-0.07469687610864639,-0.026765568181872368,-0.004428037907928228
1701816358220414500,0.92241455078125,-0.07743433862924576,-0.016342753544449806,-0.005388373974710703
1701816358230366500,0.932366455078125,-0.08090124279260635,-0.0089391665533185,-0.007154049351811409
1701816358240319500,0.942319580078125,-0.08173241466283798,-0.004435494542121887,-0.00364746549166739
1701816358250272500,0.9522724609375,-0.07593950629234314,0.0015126754296943545,0.00011078749957960099
1701816358260225500,0.9622255859375,-0.06848212331533432,0.00905874278396368,0.003942010924220085
1701816358270178600,0.972178466796875,-0.06045402213931084,0.018490061163902283,0.004723649006336927
1701816358280131300,0.98213134765625,-0.04846180975437164,0.028444690629839897,0.0065537733025848866
1701816358290083300,0.992083251953125,-0.038414765149354935,0.031243938952684402,0.009126919321715832
1701816358300036400,1.002036376953125,-0.025016136467456818,0.03718971461057663,0.015146462246775627
1701816358309989400,1.0119892578125,-0.013084642589092255,0.03838547319173813,0.024051539599895477
1701816358319942400,1.0219423828125,-0.0061521683819592,0.037218742072582245,0.027939489111304283
1701816358329895400,1.0318955078125,0.003480751533061266,0.037930604070425034,0.020740432664752007
1701816358339847700,1.04184765625,0.015115835703909397,0.02996056154370308,0.01353604905307293
1701816358349800400,1.051800537109375,0.033182188868522644,0.02371891215443611,0.010627610608935356
1701816358359753500,1.06175341796875,0.050097521394491196,0.019686352461576462,0.009256615303456783
1701816358369706500,1.07170654296875,0.06793084740638733,0.02118651196360588,0.010694989003241062
1701816358379659500,1.081659423828125,0.08055636286735535,0.028792234137654305,0.010957309976220131
1701816358389612500,1.091612548828125,0.08876395970582962,0.033615484833717346,0.009154083207249641
1701816358399564500,1.101564453125,0.09517205506563187,0.03454972058534622,0.0027241474017500877
1701816358409517600,1.111517578125,0.1039666086435318,0.035221636295318604,0.0024700819049030542
1701816358419470600,1.121470703125,0.10970918834209442,0.035166241228580475,0.005620335228741169
1701816358429423400,1.13142333984375,0.11213905364274979,0.03062182478606701,0.008706938475370407
1701816358439376400,1.14137646484375,0.1149955615401268,0.02876373752951622,0.006661631166934967
1701816358449329400,1.151329345703125,0.1144711822271347,0.028293689712882042,0.002389654517173767
1701816358459281400,1.161281494140625,0.11077018827199936,0.028187695890665054,0.0010098706698045135
1701816358469234400,1.171234375,0.11236143112182617,0.029981866478919983,-0.006154298782348633
1701816358479187500,1.1811875,0.11426159739494324,0.034457042813301086,-0.014917696826159954
1701816358489141000,1.19114111328125,0.1207549124956131,0.03771728649735451,-0.01846529357135296
1701816358499094000,1.201093994140625,0.12598270177841187,0.038355376571416855,-0.02015293948352337
1701816358509046000,1.2110458984375,0.13787983357906342,0.033603232353925705,-0.021450696513056755
1701816358518999000,1.2209990234375,0.1446855515241623,0.0333893820643425,-0.02534077689051628
1701816358528952000,1.2309521484375,0.1469404399394989,0.03586212545633316,-0.029280656948685646
1701816358538905000,1.240905029296875,0.14588423073291779,0.03857375681400299,-0.03472282737493515
1701816358548858000,1.250858154296875,0.1422937661409378,0.04294826462864876,-0.043828174471855164
1701816358558811100,1.26081103515625,0.13567127287387848,0.04273361340165138,-0.05657646059989929
1701816358568763100,1.27076318359375,0.12529586255550385,0.03581605479121208,-0.06436194479465485
1701816358578716200,1.280716064453125,0.11600889265537262,0.02766997739672661,-0.06746186316013336
1701816358588669200,1.290669189453125,0.10453785955905914,0.01950312778353691,-0.06045348942279816
1701816358598622200,1.300622314453125,0.09495127946138382,0.01275600865483284,-0.042397525161504745
1701816358608575200,1.3105751953125,0.07743354141712189,0.013064935803413391,-0.023489879444241524
1701816358618528000,1.320528076171875,0.06505809724330902,0.018764367327094078,-0.014772554859519005
1701816358628480000,1.33047998046875,0.05595434457063675,0.013837252743542194,-0.008345814421772957
1701816358638433000,1.34043310546875,0.05824413150548935,-0.0022538332268595695,0.007129814941436052
1701816358648386000,1.350385986328125,0.04977820813655853,-0.049012284725904465,0.007681355345994234
1701816358658339000,1.360339111328125,0.0405503548681736,-0.10364437103271484,-0.016866598278284073
1701816358668292000,1.3702919921875,0.03261014074087143,-0.14723871648311615,-0.05680842325091362
1701816358678244000,1.380244140625,0.032519858330488205,-0.18242573738098145,-0.08738204091787338
1701816358688197000,1.390197021484375,0.039621978998184204,-0.2026289999485016,-0.0998629480600357
1701816358698150100,1.400150146484375,0.0407588817179203,-0.20087771117687225,-0.09594357013702393
1701816358708103200,1.410103271484375,0.04159005358815193,-0.19058406352996826,-0.07650063186883926
1701816358718056000,1.420055908203125,0.03407061845064163,-0.16624809801578522,-0.03374597802758217
1701816358728009000,1.430009033203125,0.02147253416478634,-0.1478339284658432,0.011777563951909542
1701816358737961000,1.4399609375,0.005285309627652168,-0.14438913762569427,0.0636865645647049
1701816358747914000,1.4499140625,-0.009079515002667904,-0.15564312040805817,0.09899502247571945
1701816358757867000,1.459866943359375,-0.02454475685954094,-0.18045473098754883,0.11881107091903687
1701816358767820000,1.469820068359375,-0.04369741305708885,-0.20711882412433624,0.1254599243402481
1701816358777773000,1.47977294921875,-0.06316538900136948,-0.24028423428535461,0.11971920728683472
1701816358787726000,1.48972607421875,-0.08256492018699646,-0.27948197722435,0.10323584079742432
1701816358797678000,1.499677978515625,-0.10590273141860962,-0.3148133456707001,0.077593594789505
1701816358807631000,1.509631103515625,-0.1251203715801239,-0.32419538497924805,0.06036507338285446
1701816358817584000,1.519584228515625,-0.1465633362531662,-0.3241354525089264,0.06061940640211105
1701816358827537200,1.529537109375,-0.16541479527950287,-0.3115014135837555,0.08064877241849899
1701816358837490200,1.539490234375,-0.1943574994802475,-0.29991135001182556,0.11406425386667252
1701816358847442200,1.549442138671875,-0.22959457337856293,-0.3035193979740143,0.14223995804786682
1701816358857395200,1.559395263671875,-0.2686634063720703,-0.29257726669311523,0.15909084677696228
1701816358867348000,1.569347900390625,-0.3128125071525574,-0.28522375226020813,0.16239237785339355
1701816358877301000,1.579301025390625,-0.35190290212631226,-0.24635358154773712,0.15948393940925598
1701816358887254000,1.58925390625,-0.38585689663887024,-0.20477445423603058,0.14851729571819305
1701816358897207000,1.59920703125,-0.40260231494903564,-0.1560354083776474,0.12389957159757614
1701816358907159000,1.609158935546875,-0.38688725233078003,-0.1309385746717453,0.09556327760219574
1701816358917112000,1.619112060546875,-0.3515167534351349,-0.1256071925163269,0.040455013513565063
1701816358927065000,1.629065185546875,-0.30117902159690857,-0.0831817090511322,-0.014536065980792046
1701816358937018000,1.63901806640625,-0.24222221970558167,-0.046182941645383835,-0.04429609328508377
1701816358946971100,1.64897119140625,-0.18152771890163422,-0.02739087864756584,-0.053701575845479965
1701816358956924000,1.658923828125,-0.1414380818605423,-0.014289190992712975,-0.06934445351362228
1701816358966876000,1.6688759765625,-0.1044294685125351,-0.007252586539834738,-0.11515215784311295
1701816358976829000,1.678828857421875,-0.0652594268321991,-0.005270662251859903,-0.15838298201560974
1701816358986782000,1.688781982421875,-0.025411617010831833,0.004530569538474083,-0.15191683173179626
1701816358996735000,1.69873486328125,0.01847434788942337,0.02377030998468399,-0.08915490657091141
1701816359006688000,1.70868798828125,0.05576819181442261,0.037530865520238876,-0.0032000544015318155
1701816359016640300,1.71864013671875,0.06658914685249329,0.03990986570715904,0.0683116763830185
1701816359026593000,1.728593017578125,0.06232569366693497,0.027027621865272522,0.10812220722436905
1701816359036546000,1.738546142578125,0.05625475198030472,0.0005193164106458426,0.10781834274530411
1701816359046499000,1.7484990234375,0.05896584689617157,-0.023561252281069756,0.076398104429245
1701816359056452000,1.7584521484375,0.057744789868593216,-0.03448527306318283,0.02858876809477806
1701816359066405000,1.768405029296875,0.0602170005440712,-0.04316291585564613,-0.02262035757303238
1701816359076357000,1.778357177734375,0.059777047485113144,-0.04837632179260254,-0.07596773654222488
1701816359086310100,1.78831005859375,0.055143944919109344,-0.03278511017560959,-0.13337697088718414
1701816359096263200,1.79826318359375,0.05788726732134819,-0.04656457155942917,-0.17835482954978943
1701816359106216200,1.80821630859375,0.04994838312268257,-0.07091997563838959,-0.2179935872554779
1701816359116169000,1.8181689453125,0.03593296557664871,-0.09246522188186646,-0.27976641058921814
1701816359126122000,1.8281220703125,0.02190556563436985,-0.07612406462430954,-0.3401000499725342
1701816359136074000,1.838073974609375,0.011445201002061367,-0.025007881224155426,-0.36303412914276123
1701816359146027000,1.848027099609375,-0.002514556748792529,0.04861600697040558,-0.3524334132671356
1701816359155980000,1.85797998046875,-0.019457854330539703,0.11831199377775192,-0.3237021565437317
1701816359165933000,1.86793310546875,-0.04345240071415901,0.18288007378578186,-0.30285120010375977
1701816359175886000,1.877885986328125,-0.06507567316293716,0.23042522370815277,-0.2888946533203125
1701816359185838000,1.887838134765625,-0.08427786082029343,0.26318636536598206,-0.2698543965816498
1701816359195791000,1.897791015625,-0.08623714745044708,0.2811376750469208,-0.24342676997184753
1701816359205744000,1.907744140625,-0.0822240337729454,0.27708354592323303,-0.20762376487255096
1701816359215697200,1.917697265625,-0.06989280134439468,0.25759291648864746,-0.16833415627479553
1701816359225650200,1.927650146484375,-0.053109023720026016,0.22306077182292938,-0.1503162682056427
1701816359235603200,1.937603271484375,-0.03298990800976753,0.17869704961776733,-0.14605467021465302
1701816359245555200,1.94755517578125,-0.013372530229389668,0.13477006554603577,-0.13422039151191711
1701816359255508200,1.95750830078125,-0.0019773971289396286,0.09641309082508087,-0.11772023886442184
1701816359265461000,1.9674609375,-0.0007568703731521964,0.08674181997776031,-0.11023622751235962
1701816359275414000,1.9774140625,0.0008114652009680867,0.10008905082941055,-0.1072995588183403
1701816359285367000,1.987366943359375,0.0029414615128189325,0.1250351518392563,-0.09632493555545807
1701816359295320000,1.997320068359375,0.003934287931770086,0.1455896943807602,-0.07947112619876862
1701816359305272000,2.00727197265625,0.005245095584541559,0.15870122611522675,-0.049000564962625504
1701816359315225000,2.01722509765625,0.012892629019916058,0.15921255946159363,-0.016140887513756752
1701816359325178000,2.02717822265625,0.016110526397824287,0.15179964900016785,0.01860111393034458
1701816359335131100,2.037131103515625,0.01697072759270668,0.1245853379368782,0.050868771970272064
1701816359345084200,2.047084228515625,0.018924955278635025,0.09747143089771271,0.07503163069486618
1701816359355036000,2.057035888671875,0.016752082854509354,0.07564070075750351,0.08224320411682129
1701816359364989000,2.066989013671875,0.014731542207300663,0.0593983456492424,0.07578877359628677
1701816359374942000,2.07694189453125,0.019467974081635475,0.04791053384542465,0.0713420882821083
1701816359384895000,2.08689501953125,0.03116058185696602,0.04803090915083885,0.07513336837291718
1701816359394848000,2.096847900390625,0.04352617263793945,0.05320729315280914,0.08168500661849976
1701816359404801000,2.106801025390625,0.057677678763866425,0.06415235251188278,0.07830598950386047
1701816359414753000,2.1167529296875,0.0742846205830574,0.07019586861133575,0.07335544377565384
1701816359424706000,2.1267060546875,0.0816812813282013,0.07024886459112167,0.06241650506854057
1701816359434659000,2.1366591796875,0.08601291477680206,0.061800517141819,0.049859434366226196
1701816359444612000,2.146612060546875,0.08521556109189987,0.052078645676374435,0.03448793664574623
1701816359454565000,2.156565185546875,0.07853875309228897,0.04591715708374977,0.016018381342291832
1701816359464518100,2.16651806640625,0.06920330226421356,0.04018550366163254,-0.00464694993570447
1701816359474470100,2.17647021484375,0.062538743019104,0.03990693762898445,-0.02539084479212761
1701816359484423200,2.186423095703125,0.05765077844262123,0.039805736392736435,-0.04403163865208626
1701816359494376200,2.196376220703125,0.060442570596933365,0.04553419351577759,-0.05378839746117592
1701816359504329200,2.2063291015625,0.06601124256849289,0.05312367156147957,-0.05968356877565384
1701816359514282200,2.2162822265625,0.06489617377519608,0.0647267997264862,-0.07093515992164612
1701816359524234200,2.226234130859375,0.05772747844457626,0.06938306987285614,-0.08203548192977905
1701816359534187300,2.236187255859375,0.04475575312972069,0.06648395210504532,-0.0837353765964508
1701816359544140000,2.24614013671875,0.029152026399970055,0.06251157820224762,-0.07756350189447403
1701816359554093000,2.256093017578125,0.011639878153800964,0.04891135171055794,-0.07165208458900452
1701816359564046000,2.266046142578125,-0.0006775081856176257,0.03149108216166496,-0.06344954669475555
1701816359573999000,2.2759990234375,-0.010714163072407246,0.01353524997830391,-0.0611371248960495
1701816359583951400,2.285951416015625,-0.02039768360555172,0.0020218719728291035,-0.0640530213713646
1701816359593904400,2.295904296875,-0.03526371344923973,0.002153698354959488,-0.05711202323436737
1701816359603857200,2.305857177734375,-0.045099034905433655,0.008437693119049072,-0.0520903654396534
1701816359613810200,2.31581005859375,-0.05356122925877571,0.013905961997807026,-0.036498088389635086
1701816359623763200,2.32576318359375,-0.05758313462138176,0.016955547034740448,-0.02039794996380806
1701816359633715200,2.335715087890625,-0.059779178351163864,0.015292136929929256,-0.0030626351945102215
1701816359643668200,2.345668212890625,-0.05841590464115143,0.01224787812680006,0.010604973882436752
1701816359653621200,2.355621337890625,-0.05799885466694832,0.016527844592928886,0.009576194919645786
1701816359663574300,2.36557421875,-0.05154841020703316,0.01679975353181362,-0.0005984122981317341
1701816359673527300,2.37552734375,-0.0413181446492672,0.013157879933714867,-0.015542474575340748
1701816359683480300,2.385480224609375,-0.028793830424547195,0.006866694428026676,-0.01865624263882637
1701816359693432000,2.39543212890625,-0.01786608248949051,-0.001532382913865149,-0.009160208515822887
1701816359703385000,2.405385009765625,-0.015203719958662987,-0.006623015273362398,-0.002314287004992366
1701816359713338000,2.415338134765625,-0.019944412633776665,-0.00430233683437109,0.0021949773654341698
1701816359723291100,2.425291015625,-0.0313107855618,0.006597715429961681,0.005212338641285896
1701816359733244200,2.435244140625,-0.03773805871605873,0.017846908420324326,0.00523710623383522
1701816359743197200,2.445197265625,-0.037048034369945526,0.019406720995903015,0.0021843246649950743
1701816359753149200,2.455149169921875,-0.03236912563443184,0.019475962966680527,-0.004336158744990826
1701816359763102200,2.465102294921875,-0.028851887211203575,0.011824967339634895,-0.016527844592928886
1701816359773055200,2.47505517578125,-0.023321034386754036,-0.002867958042770624,-0.013162673451006413
1701816359783008000,2.485008056640625,-0.021825935691595078,-0.020797424018383026,-0.0009531453251838684
1701816359792961000,2.4949609375,-0.023842215538024902,-0.03858254477381706,0.014569088816642761
1701816359802913300,2.504913330078125,-0.038599058985710144,-0.054179880768060684,0.02852458506822586
1701816359812866300,2.5148662109375,-0.05747341364622116,-0.07738213986158371,0.042448390275239944
1701816359822819300,2.5248193359375,-0.07920773327350616,-0.09863097220659256,0.05566566064953804
1701816359832772400,2.5347724609375,-0.1023751050233841,-0.11552286893129349,0.07651501148939133
1701816359842725400,2.544725341796875,-0.12346654385328293,-0.12112748622894287,0.0943794995546341
1701816359852678400,2.554678466796875,-0.13747769594192505,-0.11513857543468475,0.10002326965332031
1701816359862630100,2.564630126953125,-0.1469031572341919,-0.10491576045751572,0.10086429864168167
1701816359872583200,2.574583251953125,-0.14878708124160767,-0.09926879405975342,0.10653922706842422
1701816359882536200,2.5845361328125,-0.15179671347141266,-0.0932290107011795,0.10978535562753677
1701816359892489200,2.5944892578125,-0.15757951140403748,-0.09076479077339172,0.1066976860165596
1701816359902442200,2.604442138671875,-0.1680297553539276,-0.07575574517250061,0.10160279273986816
1701816359912394200,2.614394287109375,-0.18225689232349396,-0.05536525323987007,0.0966690182685852
1701816359922347300,2.62434716796875,-0.19261232018470764,-0.02911527454853058,0.09155015647411346
1701816359932300000,2.634300048828125,-0.20046038925647736,-0.004415520932525396,0.09109262377023697
1701816359942253000,2.644253173828125,-0.20781764388084412,0.009908556938171387,0.08857700228691101
1701816359952206000,2.6542060546875,-0.20919263362884521,0.017483917996287346,0.07677493989467621
1701816359962159000,2.6641591796875,-0.20675984025001526,0.021678397431969643,0.0721982941031456
1701816359972111000,2.674111083984375,-0.20921207964420319,0.017258349806070328,0.07848548889160156
1701816359982064000,2.684064208984375,-0.21566970646381378,0.006058957893401384,0.08990645408630371
1701816359992017200,2.69401708984375,-0.22028443217277527,0.0013249226612970233,0.0942242369055748
1701816360001970200,2.70397021484375,-0.21876457333564758,0.0164165236055851,0.10417274385690689
1701816360011923200,2.713923095703125,-0.2174135446548462,0.0381428599357605,0.11262188851833344
1701816360021875200,2.723875244140625,-0.20123910903930664,0.0711524710059166,0.10601591318845749
1701816360031828200,2.733828125,-0.18535840511322021,0.09498456865549088,0.08704355359077454
1701816360041781200,2.74378125,-0.1593206822872162,0.09450839459896088,0.061880942434072495
1701816360051734300,2.753734375,-0.11617694050073624,0.08139738440513611,0.03298484906554222
1701816360061687300,2.763687255859375,-0.08398225158452988,0.05396869406104088,0.014210361056029797
1701816360071640300,2.773640380859375,-0.06521815061569214,0.025480592623353004,0.015398929826915264
1701816360081592000,2.783592041015625,-0.04923439025878906,0.008408132009208202,0.03704510256648064
1701816360091545000,2.793545166015625,-0.03886830434203148,-0.0057138120755553246,0.05943509563803673
1701816360101526300,2.8035263671875,-0.039623308926820755,0.004620584659278393,0.06226044520735741
1701816360111452200,2.8134521484375,-0.038011565804481506,0.03277312591671944,0.05585234612226486
1701816360121404200,2.823404052734375,-0.036679450422525406,0.03972131386399269,0.05349171906709671
1701816360131357200,2.833357177734375,-0.028742698952555656,0.04032665118575096,0.040223587304353714
1701816360141310200,2.843310302734375,-0.017556089907884598,0.04229126498103142,0.015338742174208164
1701816360151263200,2.85326318359375,-0.00210682675242424,0.05074546858668327,-0.009984190575778484
1701816360161216300,2.86321630859375,0.013716877438127995,0.0603293851017952,-0.02147599682211876
1701816360171169300,2.873169189453125,0.025651566684246063,0.04710599407553673,-0.025317607447504997
1701816360181121000,2.88312109375,0.04388516768813133,0.03153662011027336,-0.0324157290160656
1701816360191074000,2.893073974609375,0.053829409182071686,0.01780962385237217,-0.04048297926783562
1701816360201027000,2.903027099609375,0.052440304309129715,-0.01715049147605896,-0.060085441917181015
1701816360210980000,2.91297998046875,0.05410904064774513,-0.03831569850444794,-0.10371920466423035
1701816360220933000,2.92293310546875,0.05164002627134323,-0.04102173447608948,-0.14882595837116241
1701816360230885400,2.932885498046875,0.047691620886325836,-0.058753062039613724,-0.1660081446170807
1701816360240838400,2.94283837890625,0.04583699628710747,-0.07323586195707321,-0.15739308297634125
1701816360250791400,2.95279150390625,0.050038933753967285,-0.07841651141643524,-0.135649174451828
1701816360260744200,2.962744140625,0.04819922149181366,-0.07532244920730591,-0.11152253299951553
1701816360270697200,2.972697265625,0.04771958664059639,-0.06744002550840378,-0.09515607357025146
1701816360280650200,2.982650146484375,0.04506734386086464,-0.06162048876285553,-0.08626431226730347
1701816360290602200,2.992602294921875,0.03777693957090378,-0.053294114768505096,-0.08286905288696289
1701816360300555300,3.00255517578125,0.03922809660434723,-0.049192581325769424,-0.07858056575059891
1701816360310508300,3.01250830078125,0.05258944258093834,-0.048475924879312515,-0.07661488652229309
1701816360320461300,3.02246142578125,0.07048055529594421,-0.07513976097106934,-0.08125757426023483
1701816360330414300,3.032414306640625,0.0836685299873352,-0.1060878187417984,-0.08916662633419037
1701816360340366000,3.042365966796875,0.09148677438497543,-0.14917562901973724,-0.10706599801778793
1701816360350319000,3.052319091796875,0.09414274245500565,-0.16770803928375244,-0.14489006996154785
1701816360360272100,3.062272216796875,0.09356776624917984,-0.13955336809158325,-0.18625323474407196
1701816360370225200,3.07222509765625,0.08977649360895157,-0.09050486236810684,-0.1968853622674942
1701816360380178200,3.08217822265625,0.0830240473151207,-0.033249299973249435,-0.16667047142982483
1701816360390131200,3.092131103515625,0.0780830830335617,0.01353524997830391,-0.10557383298873901
1701816360400083200,3.102083251953125,0.05928010120987892,0.049864761531353,-0.03178056702017784
1701816360410036000,3.112035888671875,0.040638770908117294,0.0627046599984169,0.03404159098863602
1701816360419989000,3.121989013671875,0.024408670142292976,0.04816007241606712,0.0866083949804306
1701816360429942000,3.13194189453125,0.009836917743086815,0.03760303556919098,0.11629891395568848
1701816360439894300,3.141894287109375,-0.007183610461652279,0.012346148490905762,0.11122692376375198
1701816360449847300,3.151847412109375,-0.021433120593428612,-0.008191350847482681,0.07124088704586029
1701816360459800300,3.16180029296875,-0.02749740518629551,-0.028391161933541298,0.008955944329500198
1701816360469752300,3.17175244140625,-0.023967383429408073,-0.04430088400840759,-0.04719334468245506
1701816360479705000,3.181705078125,-0.013277988880872726,-0.05516072362661362,-0.08334974944591522
1701816360489657600,3.19165771484375,0.004482100252062082,-0.04935849457979202,-0.07105020433664322
1701816360499610600,3.201610595703125,0.02069622278213501,-0.03954581171274185,-0.010320814326405525
1701816360509563600,3.211563720703125,0.04440661147236824,-0.04529744014143944,0.0778236910700798
1701816360519516700,3.2215166015625,0.06365354359149933,-0.10789237916469574,0.1783452332019806
1701816360529468700,3.23146875,0.0730220153927803,-0.17570418119430542,0.2170281857252121
1701816360539421700,3.241421630859375,0.06087426841259003,-0.1848635971546173,0.1515176147222519
1701816360549374500,3.25137451171875,0.015899071469902992,-0.12869326770305634,0.06647250056266785
1701816360559327500,3.261327392578125,-0.027176760137081146,-0.08827393501996994,0.022730879485607147
1701816360569280500,3.271280517578125,-0.04368223249912262,-0.05362860858440399,0.0034762241411954165
1701816360579232800,3.281232666015625,-0.048960618674755096,-0.02516207844018936,0.003518834710121155
1701816360589185800,3.291185791015625,-0.030425017699599266,-0.0008349010022357106,0.02948332391679287
1701816360599138800,3.301138916015625,-0.009500294923782349,-0.010327205993235111,0.07993797212839127
1701816360609091800,3.311091796875,-0.00006524744821945205,-0.002588326344266534,0.1244678944349289
1701816360619044900,3.321044921875,0.007927165366709232,-0.00036245622322894633,0.13148532807826996
1701816360628998000,3.330997802734375,0.00549170421436429,-0.006067746318876743,0.11799534410238266
1701816360638949600,3.34094970703125,-0.004579305648803711,-0.015861520543694496,0.09378214925527573
1701816360648902700,3.350902587890625,-0.02129357121884823,-0.01386681292206049,0.06255392730236053
1701816360658855700,3.360855712890625,-0.03934793919324875,-0.005470931995660067,0.04172001779079437
1701816360668808700,3.37080859375,-0.04956302419304848,-0.008167382329702377,0.01938195340335369
1701816360678761700,3.38076171875,-0.06787332147359848,0.01474405825138092,0.003778226673603058
1701816360688714800,3.39071484375,-0.07555893808603287,0.016114255413413048,0.016335830092430115
1701816360698666800,3.400666748046875,-0.0712701827287674,-0.001433845958672464,0.03556784614920616
1701816360708619500,3.41061962890625,-0.07345610857009888,-0.005988384131342173,0.03634149581193924
1701816360718572500,3.420572509765625,-0.08191350847482681,0.004525776021182537,0.0370728000998497
1701816360728525600,3.430525634765625,-0.0954306498169899,0.025774871930480003,0.0458039753139019
1701816360738478600,3.440478515625,-0.09753721207380295,0.05586140230298042,0.06487300246953964
1701816360748431600,3.450431640625,-0.0949813723564148,0.0695473849773407,0.08690720051527023
1701816360758383900,3.4603837890625,-0.07962691783905029,0.05872030556201935,0.11392629891633987
1701816360768337000,3.4703369140625,-0.058508049696683884,0.012228436768054962,0.1308770626783371
1701816360778290000,3.4802900390625,-0.046355780214071274,-0.03118162229657173,0.13909024000167847
1701816360788243000,3.490242919921875,-0.0730300024151802,-0.03928055986762047,0.11676203459501266
1701816360798195700,3.50019580078125,-0.06943260133266449,-0.01570599153637886,0.08323150873184204
1701816360808147700,3.510147705078125,-0.06840036064386368,0.038548458367586136,0.07552032172679901
1701816360818100700,3.520100830078125,-0.055625978857278824,0.049671415239572525,0.06359708309173584
1701816360828053800,3.5300537109375,-0.019123626872897148,0.019541211426258087,0.04595151171088219
1701816360838006800,3.5400068359375,0.010416422039270401,-0.04427292197942734,0.017589911818504333
1701816360847959800,3.549959716796875,0.0350639782845974,-0.0959872454404831,-0.01167423278093338
1701816360857912800,3.559912841796875,0.047809865325689316,-0.10339429974555969,-0.03389431908726692
1701816360867864600,3.569864501953125,0.04008243978023529,-0.0755714550614357,-0.03925259783864021
1701816360877817600,3.579817626953125,0.014137922786176205,-0.04879044368863106,-0.045939795672893524
1701816360887770600,3.5897705078125,-0.016559269279241562,0.009159409441053867,-0.02352982759475708
1701816360897723600,3.5997236328125,-0.056586045771837234,0.039674174040555954,0.03386848419904709
1701816360907676700,3.6096767578125,-0.08054917305707932,0.04909297823905945,0.078508660197258
1701816360917629700,3.619629638671875,-0.0831388309597969,0.05784172937273979,0.08689069002866745
1701816360927581700,3.629581787109375,-0.06695666164159775,0.046060435473918915,0.07530247420072556
1701816360937534700,3.63953466796875,-0.04386625811457634,0.026923758909106255,0.049073003232479095
1701816360947487500,3.649487548828125,-0.010953581891953945,0.0011552792275324464,0.006396380253136158
1701816360957440500,3.6594404296875,0.014221279881894588,-0.023563915863633156,-0.03791861981153488
1701816360967393500,3.6693935546875,0.02111087739467621,-0.027632426470518112,-0.0683915764093399
1701816360977346600,3.6793466796875,0.01914173737168312,-0.011199125088751316,-0.07614003866910934
1701816360987298800,3.689298828125,0.012201272882521152,0.017767012119293213,-0.051662929356098175
1701816360997251800,3.699251953125,-0.008644887246191502,0.04590810462832451,-0.007104780990630388
1701816361007204900,3.709204833984375,-0.02750459499657154,0.06644986569881439,0.041975412517786026
1701816361017158000,3.719157958984375,-0.03490791469812393,0.07213971018791199,0.07293546199798584
1701816361027111000,3.72911083984375,-0.029741650447249413,0.0689242035150528,0.07962265610694885
1701816361037062700,3.739062744140625,-0.020846426486968994,0.05395324528217316,0.07259750366210938
1701816361047015700,3.749015625,-0.005617139395326376,0.028899557888507843,0.04896967485547066
1701816361056968700,3.75896875,0.011508317664265633,0.012205800041556358,0.012632970698177814
1701816361066921700,3.768921630859375,0.029623406007885933,0.00023142869758885354,-0.02774614281952381
1701816361076874800,3.778874755859375,0.047324106097221375,-0.004486094694584608,-0.05870698764920235
1701816361086827800,3.788827880859375,0.053395580500364304,-0.003007774008437991,-0.0759056806564331
1701816361096779500,3.798779541015625,0.060031380504369736,-0.0039039277471601963,-0.07077936083078384
1701816361106732500,3.808732666015625,0.07894621044397354,-0.029348300769925117,-0.046006906777620316
1701816361116685600,3.818685546875,0.10104698687791824,-0.041973281651735306,-0.01715555042028427
1701816361126638600,3.828638671875,0.1044318675994873,-0.030172016471624374,0.006453105714172125
1701816361136591600,3.838591552734375,0.0860414057970047,0.0011347729014232755,0.023387081921100616
1701816361146544600,3.848544677734375,0.05820738151669502,0.025242505595088005,0.027245469391345978
1701816361156496600,3.85849658203125,0.03930452838540077,0.039074964821338654,0.027271302416920662
1701816361166449700,3.86844970703125,0.03322027251124382,0.0413903184235096,0.027586087584495544
1701816361176402700,3.878402587890625,0.02448270656168461,0.04078285023570061,0.024765267968177795
1701816361186355700,3.888355712890625,0.02009567990899086,0.03886377438902855,0.014199708588421345
1701816361196308700,3.898308837890625,0.01531450729817152,0.044982120394706726,0.0062403189949691296
1701816361206261800,3.90826171875,0.006900516804307699,0.05967877805233002,0.011026551946997643
1701816361216213800,3.9182138671875,-0.00954050850123167,0.07736189663410187,0.05104241147637367
1701816361226166800,3.928166748046875,-0.03664642944931984,0.10913047939538956,0.1334427446126938
1701816361236119800,3.938119873046875,-0.0761946365237236,0.13991156220436096,0.25388047099113464
1701816361246072800,3.94807275390625,-0.11088497191667557,0.17165058851242065,0.3878380060195923
1701816361256025900,3.95802587890625,-0.13885241746902466,0.20564131438732147,0.50038081407547
1701816361265979000,3.967978759765625,-0.1552732139825821,0.22748908400535583,0.5499739050865173
1701816361275930600,3.9779306640625,-0.16075026988983154,0.2203637957572937,0.5209654569625854
1701816361285883600,3.987883544921875,-0.14142397046089172,0.17280958592891693,0.4064987897872925
1701816361295836700,3.997836669921875,-0.11469249427318573,0.1099158450961113,0.2511802911758423
1701816361305789700,4.007789794921875,-0.08543207496404648,0.022483205422759056,0.10665347427129745
1701816361315742700,4.01774267578125,-0.05660628899931908,-0.06394889205694199,-0.0006287723081186414
1701816361325694700,4.02769482421875,-0.03732393682003021,-0.11818176507949829,-0.050458647310733795
1701816361335647500,4.0376474609375,-0.03522190451622009,-0.11975010484457016,-0.04669506847858429
1701816361345600500,4.0476005859375,-0.03743179515004158,-0.11799854040145874,0.02779967337846756
1701816361355553500,4.057553466796875,-0.03608769550919533,-0.14226233959197998,0.13435088098049164
1701816361365506600,4.067506591796875,-0.043171972036361694,-0.15826579928398132,0.22015181183815002
1701816361375459600,4.07745947265625,-0.06362691521644592,-0.15498824417591095,0.2563018202781677
1701816361385411800,4.087411865234375,-0.09228731691837311,-0.13743987679481506,0.24080036580562592
1701816361395364900,4.09736474609375,-0.12397254258394241,-0.12474912405014038,0.1935500204563141
1701816361405318000,4.10731787109375,-0.15285159647464752,-0.11124343425035477,0.12871083617210388
1701816361415271000,4.11727099609375,-0.16602332890033722,-0.1075749322772026,0.06695879250764847
1701816361425223700,4.1272236328125,-0.1591971069574356,-0.09820299595594406,0.021857095882296562
1701816361435176700,4.1371767578125,-0.14481763541698456,-0.07670356333255768,-0.0015763250412419438
1701816361445128700,4.147128662109375,-0.13225656747817993,-0.054722901433706284,-0.004568386357277632
1701816361455081700,4.157081787109375,-0.11407996714115143,-0.04120602458715439,0.006275206338614225
1701816361465034800,4.16703466796875,-0.09841285645961761,-0.031926773488521576,0.021271999925374985
1701816361474987800,4.17698779296875,-0.0891578420996666,-0.026166623458266258,0.0384075753390789
1701816361484940800,4.18694091796875,-0.0873359739780426,-0.03377740457653999,0.04875022917985916
1701816361494894000,4.19689404296875,-0.08484192192554474,-0.05446350947022438,0.050936948508024216
1701816361504846000,4.20684619140625,-0.08659800887107849,-0.07444920390844345,0.03660514950752258
1701816361514799000,4.216799072265625,-0.09237946569919586,-0.08186636865139008,0.006326339207589626
1701816361524752100,4.226752197265625,-0.08583980798721313,-0.07409366965293884,-0.03732260316610336
1701816361534705200,4.236705078125,-0.06646504253149033,-0.06705573201179504,-0.0716659277677536
1701816361544658200,4.246658203125,-0.03321387991309166,-0.07479993999004364,-0.08489225059747696
1701816361554610000,4.25660986328125,0.025467276573181152,-0.08339954912662506,-0.0790356993675232
1701816361564563000,4.26656298828125,0.10058439522981644,-0.08567735552787781,-0.05784332752227783
1701816361574516000,4.276515869140625,0.1806960105895996,-0.0570952445268631,-0.011931760236620903
1701816361584469000,4.286468994140625,0.25014859437942505,-0.02298148162662983,0.07984449714422226
1701816361594422000,4.296422119140625,0.2959429621696472,-0.030486537143588066,0.2281724512577057
1701816361604375000,4.306375,0.30821189284324646,-0.0740491971373558,0.39231210947036743
1701816361614327300,4.316327392578125,0.2787754535675049,-0.13525289297103882,0.529222846031189
1701816361624280000,4.326280029296875,0.201213538646698,-0.19884279370307922,0.5957992076873779
1701816361634233000,4.336233154296875,0.0771818682551384,-0.2542005777359009,0.5562342405319214
1701816361644186000,4.34618603515625,-0.0541660338640213,-0.3091253638267517,0.42379042506217957
1701816361654139100,4.35613916015625,-0.1482728272676468,-0.36315369606018066,0.25456783175468445
1701816361664092200,4.366092041015625,-0.19238968193531036,-0.3927406370639801,0.11610157042741776
1701816361674044200,4.376044189453125,-0.18808068335056305,-0.37676113843917847,0.0360269770026207
1701816361683997200,4.3859970703125,-0.15082892775535583,-0.3001720607280731,0.02147253416478634
1701816361693950200,4.3959501953125,-0.10231652110815048,-0.1948206126689911,0.04932254180312157
1701816361703903000,4.405903076171875,-0.04777045175433159,-0.0975707620382309,0.10066322982311249
1701816361713856000,4.41585595703125,0.007476025726646185,-0.030735807493329048,0.15293362736701965
1701816361723809000,4.42580908203125,0.043236952275037766,-0.03357420489192009,0.19050070643424988
1701816361733761000,4.435760986328125,0.049195241183042526,-0.07154342532157898,0.1877232939004898
1701816361743714000,4.445714111328125,0.030547788366675377,-0.11792876571416855,0.15035249292850494
1701816361753667000,4.4556669921875,-0.004810467828065157,-0.15306465327739716,0.08380355685949326
1701816361763620000,4.4656201171875,-0.039511457085609436,-0.16795997321605682,0.02387870103120804
1701816361773573000,4.475572998046875,-0.06525836884975433,-0.1636216938495636,-0.010262491181492805
1701816361783524900,4.48552490234375,-0.07876937836408615,-0.13545583188533783,-0.01498081348836422
1701816361793478000,4.495477783203125,-0.07428807765245438,-0.09242606908082962,-0.014792794361710548
1701816361803431000,4.505430908203125,-0.05378227308392525,-0.041852373629808426,-0.01429398451000452
1701816361813384000,4.515384033203125,-0.019578494131565094,-0.009218798018991947,-0.017191236838698387
1701816361823337000,4.5253369140625,0.02062804624438286,0.015353390015661716,-0.02799142152070999
1701816361833290000,4.5352900390625,0.04668042063713074,0.024803083389997482,-0.0440705232322216
1701816361843242200,4.5452421875,0.05486271530389786,0.03074379824101925,-0.07119854539632797
1701816361853195300,4.5551953125,0.053954046219587326,0.044440701603889465,-0.0927581638097763
1701816361863148000,4.56514794921875,0.04691504314541817,0.05492929369211197,-0.10036708414554596
1701816361873101000,4.57510107421875,0.028620991855859756,0.05543023720383644,-0.08485151082277298
1701816361883054000,4.58505419921875,0.007561246864497662,0.062250323593616486,-0.06612389534711838
1701816361893007000,4.595007080078125,-0.012293151579797268,0.06562641263008118,-0.045405562967061996
1701816361902959000,4.604958984375,-0.029616480693221092,0.06952128559350967,-0.031798142939805984
1701816361912912100,4.614912109375,-0.037638720124959946,0.06341145932674408,-0.03578702732920647
1701816361922865200,4.624865234375,-0.025922143831849098,0.05655435472726822,-0.05537324398756027
1701816361932818200,4.634818115234375,-0.008287224918603897,0.05046903342008591,-0.07411657273769379
1701816361942771000,4.64477099609375,0.004786232952028513,0.05168396607041359,-0.08526243269443512
1701816361952724000,4.654723876953125,0.013578925281763077,0.05533808842301369,-0.08761240541934967
1701816361962676000,4.664676025390625,0.022658973932266235,0.05910459905862808,-0.08525923639535904
1701816361972629000,4.67462890625,0.03473401069641113,0.05668751522898674,-0.07267526537179947
1701816361982582000,4.68458203125,0.04079163819551468,0.04207528010010719,-0.051537226885557175
1701816361992535000,4.69453515625,0.03379977494478226,0.024291224777698517,-0.03473187983036041
1701816362002488000,4.704488037109375,0.021694110706448555,0.005540706682950258,-0.03129986673593521
1701816362012440000,4.714440185546875,0.014398912899196148,-0.011169563978910446,-0.038662172853946686
1701816362022393000,4.72439306640625,0.004607534967362881,-0.016318252310156822,-0.05272446572780609
1701816362032346000,4.73434619140625,-0.0016799219883978367,-0.01498374342918396,-0.060679059475660324
1701816362042299100,4.744299072265625,-0.002168079372495413,-0.009192699566483498,-0.05951526015996933
1701816362052252200,4.754252197265625,0.0038629150949418545,-0.003510046284645796,-0.05324351415038109
1701816362062205200,4.764205078125,0.011541607789695263,0.0029611687641590834,-0.04760746657848358
1701816362072157200,4.7741572265625,0.0175038930028677,-0.0006719155353493989,-0.041255027055740356
1701816362082110200,4.784110107421875,0.025250494480133057,-0.005690908990800381,-0.042694468051195145
1701816362092063200,4.794063232421875,0.02695944532752037,-0.00700810831040144,-0.04953985661268234
1701816362102016000,4.80401611328125,0.020438428968191147,-0.0028184233233332634,-0.05941032990813255
1701816362111969000,4.813968994140625,0.00944756343960762,0.00007350324449362233,-0.06284500658512115
1701816362121922000,4.823922119140625,0.0009315737406723201,0.001109739183448255,-0.06318029761314392
1701816362131874000,4.8338740234375,0.0013459615875035524,-0.007592938374727964,-0.04915023595094681
1701816362141827000,4.8438271484375,-0.00034914040588773787,-0.02233033999800682,-0.023746075108647346
1701816362151780000,4.853780029296875,-0.009365271776914597,-0.02887745387852192,-0.0024445154704153538
1701816362161733000,4.863733154296875,-0.015905464068055153,-0.0270723644644022,-0.0013670006301254034
1701816362171686100,4.87368603515625,-0.023634223267436028,-0.013553093187510967,-0.00935941282659769
1701816362181639000,4.883638916015625,-0.023482955992221832,-0.0013800500892102718,-0.017045829445123672
1701816362191591000,4.8935908203125,-0.019047195091843605,0.010513360612094402,-0.017703097313642502
1701816362201544000,4.9035439453125,-0.012528308667242527,0.018223213031888008,-0.013391971588134766
1701816362211497000,4.9134970703125,-0.007277354132384062,0.02895228937268257,-0.0060211410745978355
1701816362221450000,4.923449951171875,-0.004674113821238279,0.034932948648929596,0.007804127410054207
1701816362231403000,4.933403076171875,-0.004002198576927185,0.02810007706284523,0.020487697795033455
1701816362241355300,4.943355224609375,0.0003603257064241916,0.013343235477805138,0.02532399818301201
1701816362251308000,4.95330810546875,-0.0033574472181499004,0.002609365154057741,0.020686103031039238
1701816362261261000,4.963260986328125,-0.014258564449846745,-0.0037063213530927896,0.01617923565208912
1701816362271214000,4.973214111328125,-0.028962409123778343,-0.011259312741458416,0.017042366787791252
1701816362281167000,4.9831669921875,-0.03225807100534439,-0.005524194799363613,0.020360665395855904
1701816362291120000,4.9931201171875,-0.027240941300988197,-0.004237888380885124,0.027229756116867065
1701816362301072100,5.003072021484375,-0.015920110046863556,-0.010348777286708355,0.033065274357795715
1701816362311025200,5.013025146484375,-0.007243531756103039,-0.007185208611190319,0.028499018400907516
1701816362320978200,5.022978271484375,-0.0006410228670574725,-0.0018421085551381111,0.01811189204454422
1701816362330931200,5.03293115234375,0.00010599380766507238,0.004606469534337521,0.011516573838889599
1701816362340884000,5.042884033203125,-0.002804841147735715,0.006476008798927069,0.009469135664403439
1701816362350837000,5.0528369140625,-0.004947354551404715,0.009839847683906555,0.0056893108412623405
1701816362360789000,5.0627890625,-0.005784119479358196,0.015470302663743496,0.006868292577564716
1701816362370742000,5.072741943359375,-0.011890747584402561,0.019808325916528702,0.008506136015057564
1701816362380695000,5.082695068359375,-0.017012538388371468,0.027879567816853523,0.007706122938543558
1701816362390648000,5.09264794921875,-0.017896708101034164,0.0310995951294899,0.0052083441987633705
1701816362400601000,5.10260107421875,-0.017904166132211685,0.0264236181974411,0.003826962551102042
1701816362410554000,5.11255419921875,-0.012499280273914337,0.023566313087940216,0.004489823244512081
1701816362420506000,5.122506103515625,-0.010076070204377174,0.018336396664381027,0.004288222175091505
1701816362430459100,5.132459228515625,-0.005584915168583393,0.018632806837558746,0.0024317323695868254
1701816362440412200,5.142412109375,0.0020186761394143105,0.018669558688998222,-0.001427720650099218
1701816362450365200,5.152365234375,0.0065471152774989605,0.020329507067799568,-0.0028543761000037193
1701816362460318200,5.162318115234375,0.010555438697338104,0.020769460126757622,0.00014194648247212172
1701816362470270200,5.172270263671875,0.009881126694381237,0.018980614840984344,0.00914636068046093
1701816362480223200,5.18222314453125,0.0036874127108603716,0.012161591090261936,0.01876809448003769
1701816362490176000,5.192176025390625,-0.0008554073283448815,0.00130894361063838,0.021321533247828484
1701816362500129000,5.20212890625,-0.005136438645422459,-0.005532983224838972,0.016829047352075577
1701816362510082000,5.21208203125,-0.00788428820669651,-0.0032623722217977047,0.009285643696784973
1701816362520035000,5.22203515625,-0.005672000348567963,-0.0026008430868387222,0.0009656621841713786
1701816362529987000,5.231987060546875,-0.004656004719436169,-0.003569967346265912,-0.0041436124593019485
1701816362539939800,5.24193994140625,-0.006003297865390778,0.002989664673805237,-0.0008045409340411425
1701816362549892900,5.251892822265625,-0.00929336715489626,0.010966630652546883,0.006969758775085211
1701816362559846000,5.261845947265625,-0.011409780941903591,0.01655207946896553,0.015926769003272057
1701816362569799000,5.271798828125,-0.013430055230855942,0.022059230133891106,0.022360699251294136
1701816362579752000,5.281751953125,-0.008349009789526463,0.018007496371865273,0.02281290479004383
1701816362589704000,5.291703857421875,-0.0025723471771925688,0.006472812965512276,0.015796806663274765
1701816362599657000,5.301656982421875,0.0005739112384617329,-0.0035265579354017973,0.006758570205420256
1701816362609610000,5.31160986328125,-0.0002932140196207911,-0.003980094101279974,-0.0072896042838692665
1701816362619563000,5.32156298828125,-0.00029081720276735723,0.0005408879951573908,-0.02244378998875618
1701816362629515800,5.331515869140625,-0.00023302659974433482,0.006691991351544857,-0.02652987837791443
1701816362639468000,5.341468017578125,0.0015720640076324344,0.010273676365613937,-0.023088807240128517
1701816362649421000,5.351421142578125,0.004294347018003464,0.016638098284602165,-0.018860505893826485
1701816362659374000,5.3613740234375,0.008384962566196918,0.02754986844956875,-0.019583821296691895
1701816362669327000,5.3713271484375,0.012465991079807281,0.03760090470314026,-0.02183392643928528
1701816362679280000,5.381280029296875,0.018559303134679794,0.04309554025530815,-0.02888730727136135
1701816362689233200,5.391233154296875,0.02538871392607689,0.0349728986620903,-0.03422188758850098
1701816362699185000,5.401184814453125,0.038240063935518265,0.01738005504012108,-0.033599771559238434
1701816362709138000,5.411137939453125,0.05480306223034859,-0.009692042134702206,-0.024394288659095764
1701816362719091000,5.421091064453125,0.0877160057425499,-0.05396203324198723,-0.015535550191998482
1701816362729044000,5.4310439453125,0.12333578616380692,-0.1009678915143013,-0.0049614692106842995
1701816362738997000,5.4409970703125,0.15186835825443268,-0.1468256562948227,0.008188155479729176
1701816362748950000,5.450949951171875,0.16987638175487518,-0.18212851881980896,0.011637214571237564
1701816362758902000,5.460902099609375,0.17083485424518585,-0.2046988159418106,0.005218197591602802
1701816362768855000,5.47085498046875,0.15337064862251282,-0.22282296419143677,-0.008315187878906727
1701816362778807800,5.480807861328125,0.1315508335828781,-0.22614231705665588,-0.023751668632030487
1701816362788760800,5.4907607421875,0.10999947041273117,-0.2377382516860962,-0.028062261641025543
1701816362798713900,5.5007138671875,0.0793619304895401,-0.28183433413505554,-0.041486721485853195
1701816362808667000,5.5106669921875,0.04563140124082565,-0.375048965215683,-0.09636808186769485
1701816362818619100,5.520619140625,0.019343070685863495,-0.5082879662513733,-0.18805113434791565
1701816362828572200,5.530572265625,0.0020570256747305393,-0.6591430306434631,-0.2700890004634857
1701816362838525200,5.540525146484375,-0.0011267834343016148,-0.8059617280960083,-0.3107701241970062
1701816362848478000,5.55047802734375,-0.001829591696150601,-0.9285241365432739,-0.31593558192253113
1701816362858431000,5.560430908203125,-0.0019864519126713276,-0.9820030927658081,-0.29932838678359985
1701816362868383000,5.570383056640625,0.00005699164830730297,-0.9521676898002625,-0.27818819880485535
1701816362878336000,5.5803359375,0.00758042186498642,-0.849236786365509,-0.2337357997894287
1701816362888289000,5.5902890625,0.023916784673929214,-0.7029368281364441,-0.1587156057357788
1701816362898242000,5.600241943359375,0.04830761253833771,-0.5303959846496582,-0.05735889822244644
1701816362908195000,5.610195068359375,0.06823232024908066,-0.3378843069076538,0.05287573114037514
1701816362918148000,5.620148193359375,0.08440595865249634,-0.16874241828918457,0.1624128818511963
1701816362928100000,5.63010009765625,0.09434673935174942,-0.059066250920295715,0.23659895360469818
1701816362938052900,5.640052978515625,0.0975598469376564,-0.01708417758345604,0.24919144809246063
1701816362948006000,5.650005859375,0.08709069341421127,-0.021458953619003296,0.19652877748012543
1701816362957959000,5.659958984375,0.07627879083156586,-0.054060570895671844,0.10209067910909653
1701816362967912000,5.669911865234375,0.07101266086101532,-0.09579683095216751,0.0030272151343524456
1701816362977865000,5.679864990234375,0.07723326981067657,-0.14330042898654938,-0.06343968957662582
1701816362987817000,5.68981689453125,0.08880337327718735,-0.17481042444705963,-0.09177306294441223
1701816362997770000,5.69977001953125,0.09439095109701157,-0.1684017926454544,-0.09460347145795822
1701816363007723000,5.709722900390625,0.08535697311162949,-0.1150544136762619,-0.08853758871555328
1701816363017675800,5.71967578125,0.07132371515035629,-0.033731065690517426,-0.08070363104343414
1701816363027628800,5.72962890625,0.0496988482773304,0.06625598669052124,-0.07108030468225479
1701816363037581000,5.7395810546875,0.022898390889167786,0.13941222429275513,-0.04349581152200699
1701816363047534000,5.7495341796875,-0.006646717432886362,0.19113773107528687,-0.007436078507453203
1701816363057487000,5.759487060546875,-0.030879085883498192,0.2356593906879425,0.02237721160054207
1701816363067440000,5.769440185546875,-0.043663058429956436,0.2676279842853546,0.04163745790719986
1701816363077393200,5.77939306640625,-0.051832303404808044,0.30051934719085693,0.04861387610435486
1701816363087346200,5.78934619140625,-0.040882185101509094,0.32117801904678345,0.05128103122115135
1701816363097298000,5.7992978515625,-0.021691447123885155,0.33655592799186707,0.045110221952199936
1701816363107251000,5.8092509765625,-0.008342351764440536,0.35846972465515137,0.03327593207359314
1701816363117204000,5.819203857421875,0.0022591594606637955,0.37843573093414307,0.022966302931308746
1701816363127157000,5.829156982421875,0.008139153011143208,0.39533960819244385,0.010893394239246845
1701816363137110000,5.839110107421875,0.01275760680437088,0.4166076183319092,-0.0025015072897076607
1701816363147063000,5.84906298828125,0.02161235176026821,0.44275400042533875,-0.014887336641550064
1701816363157015000,5.85901513671875,0.046417832374572754,0.44788190722465515,-0.02087705209851265
1701816363166968000,5.868968017578125,0.07537411898374557,0.43510937690734863,-0.009135707281529903
1701816363176920800,5.8789208984375,0.09138530492782593,0.4261840581893921,0.006368683185428381
1701816363186873900,5.888873779296875,0.08805422484874725,0.42715904116630554,0.0057739997282624245
1701816363196827000,5.898826904296875,0.077117420732975,0.4359288513660431,-0.0041617220267653465
1701816363206779000,5.90877880859375,0.07144995033740997,0.39593321084976196,0.010268083773553371
1701816363216732000,5.91873193359375,0.06543227285146713,0.2957206070423126,0.04373416304588318
1701816363226685000,5.928684814453125,0.040406011044979095,0.20412597060203552,0.05270928516983986
1701816363236638000,5.938637939453125,0.009198558516800404,0.13243766129016876,0.035949211567640305
1701816363246591000,5.948591064453125,-0.02448483742773533,0.04824023321270943,0.021810490638017654
1701816363256544000,5.9585439453125,-0.049253299832344055,-0.03328152373433113,0.006082127336412668
1701816363266496000,5.96849609375,-0.06564851850271225,-0.08035529404878616,-0.006223541218787432
1701816363276449000,5.978448974609375,-0.06624426692724228,-0.09722082316875458,0.002176867797970772
1701816363286402000,5.988402099609375,-0.031077224761247635,-0.13290958106517792,0.025903502479195595
1701816363296355000,5.99835498046875,0.008708536624908447,-0.1685490608215332,0.03917243704199791
1701816363306308000,6.00830810546875,0.044974133372306824,-0.1741936355829239,0.0377495102584362
1701816363316261000,6.01826123046875,0.07881518453359604,-0.20636674761772156,0.03458807244896889
1701816363326212900,6.028212890625,0.09735771268606186,-0.2196042686700821,0.02382144331932068
1701816363336166000,6.038165771484375,0.09510733932256699,-0.20475395023822784,0.010786068625748158
1701816363346119000,6.048118896484375,0.0798218622803688,-0.1784254014492035,0.007779892534017563
1701816363356072000,6.058072021484375,0.06429430097341537,-0.15579305589199066,0.02250717394053936
1701816363366025000,6.06802490234375,0.04868817701935768,-0.1387280523777008,0.046545665711164474
1701816363375977000,6.07797705078125,0.029497971758246422,-0.10771793872117996,0.07228511571884155
1701816363385930000,6.087929931640625,0.011545868590474129,-0.09004493802785873,0.09828369319438934
1701816363395883000,6.097883056640625,0.0014602112350985408,-0.08179819583892822,0.11216782033443451
1701816363405836000,6.1078359375,-0.0016580841038376093,-0.09618671983480453,0.10982636362314224
1701816363415788800,6.117788818359375,-0.009352489374577999,-0.108546182513237,0.0923570916056633
1701816363425741800,6.127741943359375,-0.009800964966416359,-0.10637650638818741,0.05975201353430748
1701816363435694000,6.137694091796875,-0.01396055705845356,-0.09799101203680038,0.0144095653668046
1701816363445647000,6.147647216796875,-0.01980326510965824,-0.0737498551607132,-0.03931198641657829
1701816363455600000,6.15760009765625,-0.019449597224593163,-0.016991766169667244,-0.07660822570323944
1701816363465553200,6.16755322265625,-0.019170498475432396,0.035837892442941666,-0.06619233638048172
1701816363475506200,6.177506103515625,-0.014913968741893768,0.07749026268720627,-0.017791246995329857
1701816363485459200,6.187459228515625,-0.015276690945029259,0.11184371262788773,0.03801928833127022
1701816363495410400,6.197410400390625,-0.020537499338388443,0.11966514587402344,0.08292044699192047
1701816363505363500,6.207363525390625,-0.03399018943309784,0.09444501250982285,0.09637340903282166
1701816363515316200,6.217316162109375,-0.0493563637137413,0.06479018181562424,0.07920587062835693
1701816363525269200,6.227269287109375,-0.06003484129905701,0.029621541500091553,0.04230031743645668
1701816363535222300,6.23722216796875,-0.0613270066678524,-0.003560912562534213,0.011549863032996655
1701816363545174300,6.24717431640625,-0.05170314013957977,-0.022118085995316505,-0.007281614933162928
1701816363555127300,6.257127197265625,-0.03614841774106026,-0.015453524887561798,-0.015743009746074677
1701816363565080300,6.267080322265625,-0.01894546113908291,0.01215866208076477,-0.02105068974196911
1701816363575033300,6.277033447265625,-0.005053614266216755,0.04003077372908592,-0.013014601543545723
1701816363584986400,6.286986328125,0.004963865969330072,0.05686754360795021,-0.0028658276423811913
1701816363594939400,6.296939453125,0.0076182386837899685,0.06831620633602142,0.0026381274219602346
1701816363604891400,6.306891357421875,-0.0011440940434113145,0.07763194292783737,0.0013036173768341541
1701816363614844400,6.316844482421875,-0.006927414797246456,0.08217476308345795,-0.0031004520133137703
1701816363624797400,6.32679736328125,-0.010308563709259033,0.0792122632265091,-0.007622499484568834
1701816363634750500,6.33675048828125,-0.010129866190254688,0.07006004452705383,-0.013348562642931938
1701816363644703500,6.346703369140625,-0.010098706930875778,0.062494803220033646,-0.022304506972432137
1701816363654655500,6.356655517578125,-0.002510561840608716,0.053765226155519485,-0.037095438688993454
1701816363664608500,6.3666083984375,0.004715925548225641,0.04884956404566765,-0.049798715859651566
1701816363674561300,6.376561279296875,0.007791610434651375,0.052145227789878845,-0.05847875773906708
1701816363684514300,6.386514404296875,0.009612679481506348,0.056238237768411636,-0.05770697072148323
1701816363694467300,6.39646728515625,0.014256966300308704,0.0567421093583107,-0.044680118560791016
1701816363704420400,6.40642041015625,0.019572103396058083,0.05327440798282623,-0.032094020396471024
1701816363714372400,6.416372314453125,0.02105308696627617,0.04511474817991257,-0.01673450507223606
1701816363724325400,6.426325439453125,0.018931878730654716,0.026939472183585167,-0.006795587949454784
1701816363734278400,6.4362783203125,0.017185911536216736,0.009377256035804749,-0.0046970173716545105
1701816363744231400,6.4462314453125,0.022783342748880386,-0.02334100939333439,-0.0003102582704741508
1701816363754184400,6.456184326171875,0.029077989980578423,-0.07760132104158401,0.0013558153295889497
1701816363764137200,6.46613720703125,0.03143275901675224,-0.12700189650058746,-0.008452340960502625
1701816363774089200,6.476089111328125,0.02155402861535549,-0.16033321619033813,-0.02153298817574978
1701816363784042200,6.486042236328125,0.005802495405077934,-0.1621849089860916,-0.0341971181333065
1701816363793995300,6.495995361328125,-0.0020754013676196337,-0.1624632179737091,-0.036616332828998566
1701816363803948300,6.5059482421875,-0.004567321389913559,-0.1477939933538437,-0.03536651283502579
1701816363813901300,6.5159013671875,-0.009551160968840122,-0.11823663115501404,-0.025478994473814964
1701816363823854300,6.525854248046875,-0.012659869156777859,-0.09878170490264893,0.0006460828590206802
1701816363833806300,6.535806396484375,-0.0065380604937672615,-0.0815177634358406,0.0219710785895586
1701816363843759400,6.54575927734375,0.0012463594321161509,-0.06671804189682007,0.03430045023560524
1701816363853712400,6.55571240234375,0.0065287393517792225,-0.06455902010202408,0.04350753128528595
1701816363863665400,6.56566552734375,0.00996421743184328,-0.08104478567838669,0.05239609628915787
1701816363873618400,6.575618408203125,0.0046669235453009605,-0.09241248667240143,0.049799781292676926
1701816363883570400,6.5855703125,-0.004348675720393658,-0.09175442159175873,0.03339098021388054
1701816363893523500,6.5955234375,-0.006441387813538313,-0.087156742811203,0.018435997888445854
1701816363903476500,6.6054765625,0.003924167715013027,-0.09066252410411835,0.01531796995550394
1701816363913429200,6.61542919921875,0.014597318135201931,-0.09571321308612823,0.011884888634085655
1701816363923382300,6.62538232421875,0.010580206289887428,-0.08744702488183975,-0.0008849684381857514
1701816363933335300,6.635335205078125,0.003462641965597868,-0.0672227144241333,-0.01318211480975151
1701816363943287300,6.645287353515625,0.0011595403775572777,-0.04078364744782448,-0.024216922000050545
1701816363953240300,6.655240234375,0.007093595806509256,-0.018249576911330223,-0.02563265897333622
1701816363963193300,6.665193359375,0.014079333283007145,0.00210602767765522,-0.019300993531942368
1701816363973146400,6.675146484375,0.016270050778985023,0.024396952241659164,-0.013248427771031857
1701816363983099400,6.685099365234375,0.008982310071587563,0.04430541396141052,-0.007998271845281124
1701816363993052400,6.695052490234375,0.005339637864381075,0.047502003610134125,-0.002950782421976328
1701816364003004400,6.70500439453125,0.007266168482601643,0.038371358066797256,-0.008796687237918377
1701816364012957400,6.71495751953125,0.010845723561942577,0.03224235773086548,-0.024624653160572052
1701816364022910500,6.724910400390625,0.015217302367091179,0.031976841390132904,-0.04410780593752861
1701816364032863500,6.734863525390625,0.016287360340356827,0.03978283330798149,-0.054011568427085876
1701816364042816500,6.74481640625,0.025780729949474335,0.03700728714466095,-0.05499241128563881
1701816364052769500,6.75476953125,0.02714639902114868,0.03273744136095047,-0.05023733898997307
1701816364062721300,6.76472119140625,0.024233167991042137,0.028956551104784012,-0.04195171222090721
1701816364072674300,6.77467431640625,0.018201906234025955,0.021864285692572594,-0.03614575415849686
1701816364082627300,6.78462744140625,0.013699566945433617,0.02093111351132393,-0.03236113488674164
1701816364092580400,6.794580322265625,0.00923397857695818,0.02461959235370159,-0.027630295604467392
1701816364102533400,6.804533447265625,0.005358546506613493,0.0318404883146286,-0.025554629042744637
1701816364112485400,6.8144853515625,0.003756654914468527,0.039445143193006516,-0.018445320427417755
1701816364122438400,6.8244384765625,0.00657534459605813,0.045689988881349564,-0.011634818278253078
1701816364132391400,6.834391357421875,0.010558102279901505,0.04538053274154663,-0.0027443873696029186
1701816364142344400,6.844344482421875,0.011157047003507614,0.029021264985203743,0.0010748518398031592
1701816364152297200,6.854297119140625,0.01062414888292551,0.005814213305711746,0.0013219931861385703
1701816364162250200,6.864250244140625,0.0062677497044205666,-0.019508985802531242,0.0029587720055133104
1701816364172202200,6.8742021484375,-0.008924518711864948,-0.03887869045138359,0.003972903825342655
1701816364182155300,6.8841552734375,-0.0273237656801939,-0.04807538539171219,0.011860653758049011
1701816364192108300,6.8941083984375,-0.035885561257600784,-0.045524340122938156,0.018424546346068382
1701816364202061300,6.904061279296875,-0.03476943075656891,-0.042690739035606384,0.027956267818808556
1701816364212014300,6.914014404296875,-0.0298436488956213,-0.03479819372296333,0.03212304785847664
1701816364221967400,6.92396728515625,-0.022425414994359016,-0.025774339213967323,0.03442801535129547
1701816364231919400,6.93391943359375,-0.01714356616139412,-0.01950339414179325,0.028603415936231613
1701816364241872400,6.943872314453125,-0.012175972573459148,-0.012545352801680565,0.020422451198101044
1701816364251825400,6.953825439453125,-0.01188195962458849,-0.017959825694561005,0.01353498362004757
1701816364261778400,6.9637783203125,-0.0047087352722883224,-0.026524817571043968,0.010493121109902859
1701816364271731500,6.9737314453125,0.003626426449045539,-0.03274356573820114,0.008360727690160275
1701816364281683500,6.983683349609375,0.005289037711918354,-0.03032754547894001,0.0005083974683657289
1701816364291636500,6.993636474609375,0.0024117587599903345,-0.01678670383989811,-0.008874451741576195
1701816364301589200,7.00358935546875,-0.0004548678989522159,-0.0020748688839375973,-0.009170861914753914
1701816364311542300,7.013542236328125,-0.008334096521139145,0.014674816280603409,-0.008520517498254776
1701816364321495300,7.023495361328125,-0.01465537492185831,0.027648406103253365,-0.006147641222923994
1701816364331448300,7.0334482421875,-0.014888934791088104,0.0314740352332592,0.0007717840489931405
1701816364341400300,7.043400390625,-0.005685316398739815,0.020362796261906624,0.006972688250243664
1701816364351353300,7.053353271484375,0.005688245873898268,0.010265421122312546,0.009050486609339714
1701816364361306400,7.063306396484375,0.015299860388040543,0.008698683232069016,-0.0031073763966560364
1701816364371259400,7.07325927734375,0.018084993585944176,0.012307532131671906,-0.013160010799765587
1701816364381212400,7.08321240234375,0.02172340452671051,0.009880061261355877,-0.01321220863610506
1701816364391164400,7.093164306640625,0.02299533039331436,0.0021888520568609238,-0.009396697394549847
1701816364401117400,7.103117431640625,0.01630866527557373,-0.003314570290967822,-0.008561796508729458
1701816364411070500,7.113070556640625,0.013889983296394348,-0.003236806020140648,-0.011722968891263008
1701816364421023500,7.1230234375,0.011070494540035725,-0.0036155073903501034,-0.013500362634658813
1701816364430976500,7.1329765625,0.013018863275647163,-0.000740625080652535,-0.015422631986439228
1701816364440929500,7.142929443359375,0.016598151996731758,0.005505552981048822,-0.016346748918294907
1701816364450881500,7.152881591796875,0.014848987571895123,0.011959457769989967,-0.011746937409043312
1701816364460834300,7.162834228515625,0.014079066924750805,0.01293390803039074,-0.001540904981084168
1701816364470787300,7.172787353515625,0.00839881133288145,0.01130911335349083,0.007639543619006872
1701816364480740400,7.182740234375,-0.0010074737947434187,0.00544430036097765,0.016527844592928886
1701816364490694400,7.1926943359375,-0.0105314701795578,0.001600826159119606,0.01666552945971489
1701816364500647400,7.2026474609375,-0.01561011839658022,0.003644536016508937,0.011770905926823616
1701816364510599400,7.212599365234375,-0.012925120070576668,0.01152509544044733,0.005224589258432388
1701816364520552400,7.222552490234375,-0.00726430444046855,0.026383670046925545,-0.0009036105475388467
1701816364530505500,7.23250537109375,-0.004057325888425112,0.033131055533885956,0.0011060107499361038
1701816364540458500,7.24245849609375,0.0013217268278822303,0.03578782454133034,0.0054972972720861435
1701816364550411500,7.25241162109375,0.0024495755787938833,0.03807388246059418,0.008748217485845089
1701816364560364500,7.262364501953125,0.002374740783125162,0.03256407007575035,0.008207862265408039
1701816364570316500,7.272316650390625,0.004707669839262962,0.02852804772555828,0.0029177593532949686
1701816364580269600,7.28226953125,0.005786249879747629,0.02991102635860443,-0.008703476749360561
1701816364590222600,7.29222265625,0.0049042110331356525,0.03580993041396141,-0.02081739716231823
1701816364600175400,7.30217529296875,0.0044043357484042645,0.04229632392525673,-0.020593957975506783
1701816364610128400,7.31212841796875,0.007041930686682463,0.05006050318479538,-0.01775050163269043
1701816364620080400,7.322080322265625,0.0063196811825037,0.05468748137354851,-0.015839150175452232
1701816364630033400,7.332033447265625,0.008892028592526913,0.04905436187982559,-0.012535499408841133
1701816364639986400,7.341986328125,0.008286692202091217,0.033005621284246445,-0.009937851689755917
1701816364649939500,7.351939453125,0.00481472909450531,0.017786987125873566,-0.013008476234972477
1701816364659892500,7.361892578125,0.002633600030094385,0.01133680995553732,-0.017170730978250504
1701816364669845500,7.371845458984375,0.0041068606078624725,0.01273097563534975,-0.023572437465190887
1701816364679797500,7.381797607421875,0.004643754102289677,0.017297763377428055,-0.023549001663923264
1701816364689750500,7.39175048828125,0.007312241476029158,0.023383885622024536,-0.018676215782761574
1701816364699703600,7.40170361328125,0.008700546808540821,0.025594575330615044,-0.01392993051558733
1701816364709656600,7.411656494140625,0.010005230084061623,0.02467924728989601,-0.009731989353895187
1701816364719609600,7.421609619140625,0.015048458240926266,0.018085792660713196,-0.00888110976666212
1701816364729562600,7.431562744140625,0.0214802585542202,0.00974344089627266,-0.016211725771427155
1701816364739514600,7.4415146484375,0.028421787545084953,0.0014977618120610714,-0.01727352850139141
1701816364749467400,7.45146728515625,0.02833576686680317,-0.004840561654418707,-0.01960858888924122
1701816364759420400,7.46142041015625,0.02177267335355282,-0.0032490564044564962,-0.015446866862475872
1701816364769373400,7.47137353515625,0.016051936894655228,-0.0004721784498542547,-0.005868541542440653
1701816364779326500,7.481326416015625,0.01824212074279785,-0.002383262850344181,0.008234760724008083
1701816364789278500,7.491278564453125,0.018489528447389603,-0.0029406624380499125,0.020371850579977036
1701816364799231500,7.5012314453125,0.01630094274878502,-0.004491420928388834,0.021678131073713303
1701816364809184500,7.5111845703125,0.013107546605169773,-0.0088803106918931,0.016078036278486252
1701816364819137500,7.521137451171875,0.005205947440117598,-0.007897870615124702,0.006834470201283693
1701816364829090600,7.531090576171875,0.0007408913807012141,-0.004904477391391993,0.004269047174602747
1701816364839043300,7.541043212890625,0.0011675298446789384,-0.005927397403866053,0.005161738954484463
1701816364848995300,7.550995361328125,0.004129763692617416,-0.001466602785512805,0.009609217755496502
1701816364858948400,7.5609482421875,0.008099205791950226,0.004911668132990599,0.011893411166965961
1701816364868901400,7.5709013671875,0.008299475535750389,0.009398295544087887,0.017581922933459282
1701816364878854400,7.5808544921875,0.00751890242099762,0.00195129809435457,0.01726926863193512
1701816364888807400,7.590807373046875,-0.0014900385867804289,-0.0035337484441697598,0.013495835475623608
1701816364898760400,7.600760498046875,-0.007664843928068876,-0.010557569563388824,0.004625644534826279
1701816364908712400,7.61071240234375,-0.008558068424463272,-0.011211375705897808,-0.0032621060963720083
1701816364918665500,7.62066552734375,-0.011051585897803307,-0.012090484611690044,-0.010663563385605812
1701816364928618500,7.630618408203125,-0.01197889819741249,-0.011536281555891037,-0.0203340332955122
1701816364938571500,7.640571533203125,-0.013463610783219337,-0.007398527581244707,-0.03341201692819595
1701816364948524500,7.650524658203125,-0.01913401298224926,-0.006882140878587961,-0.04766525700688362
1701816364958476500,7.6604765625,-0.025082450360059738,-0.008612396195530891,-0.07314851135015488
1701816364968429600,7.6704296875,-0.024750620126724243,-0.011777297593653202,-0.08853412419557571
1701816364978382600,7.680382568359375,-0.012084625661373138,-0.021570272743701935,-0.08884278684854507
1701816364988335600,7.690335693359375,0.0006146575906313956,-0.022819295525550842,-0.07220815122127533
1701816364998288400,7.700288330078125,0.014133928343653679,-0.021770808845758438,-0.053890395909547806
1701816365008241400,7.710241455078125,0.01685860939323902,-0.013669739477336407,-0.03548635542392731
1701816365018193400,7.720193359375,0.00563950976356864,-0.0010636665392667055,-0.020266123116016388
1701816365028146400,7.730146484375,-0.008203867822885513,0.002263953210785985,-0.012384763918817043
1701816365038099500,7.740099365234375,-0.011390605941414833,-0.007458448875695467,-0.00800199992954731
1701816365048052500,7.750052490234375,-0.006061887368559837,-0.03383626043796539,-0.010184460319578648
1701816365058005500,7.760005615234375,-0.0032772859558463097,-0.056588977575302124,-0.02364674024283886
1701816365067958500,7.76995849609375,-0.0044136568903923035,-0.07964769005775452,-0.03820384293794632
1701816365077910500,7.77991064453125,0.0009262474486604333,-0.10055270791053772,-0.05071963742375374
1701816365087863600,7.789863525390625,0.006994260009378195,-0.11110681295394897,-0.06360694020986557
1701816365097816600,7.799816650390625,0.01082601584494114,-0.11911919713020325,-0.08012599498033524
1701816365107769600,7.80976953125,0.011663846671581268,-0.10504918545484543,-0.08836128562688828
1701816365117722600,7.81972265625,0.016160061582922935,-0.07605241984128952,-0.07611926645040512
1701816365127675600,7.829675537109375,0.011460380628705025,-0.03971465677022934,-0.053343649953603745
1701816365137627600,7.839627685546875,0.0094507597386837,0.0057159424759447575,-0.031742483377456665
1701816365147580400,7.849580322265625,0.01004810631275177,0.044924065470695496,-0.013378389179706573
1701816365157533400,7.859533447265625,0.011434548534452915,0.0698762834072113,-0.001966478070244193
1701816365167486500,7.869486572265625,0.011697402223944664,0.07290297001600266,0.0038903458043932915
1701816365177439500,7.879439453125,0.0056925066746771336,0.05415990948677063,-0.003628823207691312
1701816365187391500,7.8893916015625,-0.0025297366082668304,0.024501081556081772,-0.01696140691637993
1701816365197344500,7.899344482421875,-0.013346165418624878,0.0019097528420388699,-0.027162645012140274
1701816365207297500,7.909297607421875,-0.020726850256323814,-0.004882373381406069,-0.03472042828798294
1701816365217250600,7.91925048828125,-0.01944720186293125,0.0038717035204172134,-0.03874339908361435
1701816365227203600,7.92920361328125,-0.0075841499492526054,0.021389978006482124,-0.03237311914563179
1701816365237156400,7.93915625,0.004861867055296898,0.034270089119672775,-0.024562601000070572
1701816365247108400,7.9491083984375,0.015430355444550514,0.047754205763339996,-0.020083695650100708
1701816365257061400,7.959061279296875,0.025286180898547173,0.053936202079057693,-0.025313878431916237
1701816365267014400,7.969014404296875,0.028231903910636902,0.05532131344079971,-0.03320029750466347
1701816365276967400,7.978967529296875,0.02749447524547577,0.05841830372810364,-0.04015541076660156
1701816365286920400,7.98892041015625,0.02678447589278221,0.060917943716049194,-0.041916292160749435
1701816365296873500,7.99887353515625,0.031070301309227943,0.05679510533809662,-0.030892934650182724
1701816365306825500,8.008825439453124,0.03405224159359932,0.04562234506011009,-0.019333483651280403
1701816365316778500,8.018778564453125,0.02599325031042099,0.03346794471144676,-0.010807639919221401
1701816365326731500,8.0287314453125,0.020425645634531975,0.024645958095788956,-0.007759652566164732
1701816365336684500,8.0386845703125,0.01883174479007721,0.013516074977815151,-0.0033992587123066187
1701816365346637600,8.048637451171874,0.020726051181554794,0.006217149551957846,-0.003126817522570491
1701816365356589600,8.058589599609375,0.024957546964287758,0.009892844595015049,-0.004448544234037399
1701816365366542600,8.06854248046875,0.02189597859978676,0.01709136925637722,-0.00941880140453577
1701816365376495600,8.07849560546875,0.020961474627256393,0.026573287323117256,-0.011842810548841953
1701816365386448400,8.088448486328126,0.02123684622347355,0.03501896932721138,-0.01577097363770008
1701816365396401400,8.0984013671875,0.024230238050222397,0.04625591263175011,-0.019822707399725914
1701816365406354400,8.1083544921875,0.03217205032706261,0.05944707989692688,-0.02112632431089878
1701816365416306400,8.118306396484375,0.034863442182540894,0.06655506044626236,-0.02352423407137394
1701816365426259500,8.128259521484376,0.03032355010509491,0.0627259686589241,-0.0224392618983984
1701816365436212500,8.13821240234375,0.020858943462371826,0.05278544872999191,-0.016287093982100487
1701816365446165500,8.14816552734375,0.006521016359329224,0.029223665595054626,-0.011492871679365635
1701816365456118500,8.158118408203125,-0.00583711639046669,0.015790414065122604,-0.008350341580808163
1701816365466071600,8.168071533203126,-0.02123977430164814,0.01438186876475811,-0.008389756083488464
1701816365476023600,8.1780234375,-0.02273407392203808,0.015000787563621998,-0.013229519128799438
1701816365485976600,8.1879765625,-0.015415707603096962,0.031245270743966103,-0.01685488037765026
1701816365495928600,8.197928466796874,-0.015960058197379112,0.0430220365524292,-0.013352557085454464
1701816365505881600,8.207881591796875,-0.00848696194589138,0.05387388542294502,-0.006042179651558399
1701816365515834600,8.217834716796874,-0.00016458335448987782,0.058034274727106094,0.0011936287628486753
1701816365525787600,8.22778759765625,0.007297327741980553,0.04073091968894005,0.011887019500136375
1701816365535739600,8.23773974609375,0.020499682053923607,0.021975873038172722,0.018215755000710487
1701816365545692700,8.247692626953125,0.025494707748293877,0.011598332785069942,0.01564474031329155
1701816365555645400,8.2576455078125,0.01967783086001873,0.00586774293333292,0.005886384751647711
1701816365565598500,8.267598388671875,0.008432899601757526,0.01179167814552784,-0.0017675400013104081
1701816365575551500,8.277551513671876,0.000046339002437889576,0.023079486563801765,-0.004418983124196529
1701816365585503500,8.28750341796875,-0.004995291121304035,0.031215710565447807,-0.004798749927431345
1701816365595456500,8.29745654296875,-0.006451773922890425,0.030652716755867004,0.008346080780029297
1701816365605409500,8.307409423828124,-0.008431035093963146,0.02395087294280529,0.021154819056391716
1701816365615362600,8.317362548828125,-0.006394782569259405,0.011651862412691116,0.019632557407021523
1701816365625315600,8.327315673828124,-0.001088700257241726,0.006941529456526041,0.01384231261909008
1701816365635268600,8.3372685546875,0.008101069368422031,0.002150502521544695,0.007959122769534588
1701816365645220600,8.347220703125,0.014503308571875095,0.003052781568840146,0.010032127611339092
1701816365655173600,8.357173583984375,0.017354488372802734,0.00538464542478323,0.014603976160287857
1701816365665126700,8.367126708984374,0.01053040474653244,0.014067349024116993,0.02016066201031208
1701816365675079700,8.37707958984375,0.003433879930526018,0.018433336168527603,0.020770525559782982
1701816365685032700,8.38703271484375,0.002909237053245306,0.01582982949912548,0.013680391944944859
1701816365694985700,8.39698583984375,0.011602327227592468,0.014635135419666767,0.007186007685959339
1701816365704937500,8.4069375,0.02527792565524578,0.015678029507398605,-0.002264485927298665
1701816365714890500,8.416890380859375,0.03754444420337677,0.01798139698803425,-0.014591991901397705
1701816365724843500,8.426843505859376,0.04627694934606552,0.025600701570510864,-0.021744443103671074
1701816365734796500,8.436796630859375,0.05151885002851486,0.027530428022146225,-0.021635254845023155
1701816365744749600,8.44674951171875,0.049975816160440445,0.031087610870599747,-0.02255990356206894
1701816365754701600,8.45670166015625,0.04620185121893883,0.031981900334358215,-0.020440027117729187
1701816365764654600,8.466654541015625,0.04205983504652977,0.026143187656998634,-0.015311045572161674
1701816365774607600,8.476607666015624,0.03338884934782982,0.018030932173132896,-0.0156553927809
1701816365784560600,8.486560546875,0.029157353565096855,0.018569156527519226,-0.02094043605029583
1701816365794513400,8.496513427734374,0.02924710139632225,0.029651103541254997,-0.026153840124607086
1701816365804466400,8.506466552734375,0.0389239639043808,0.03672206029295921,-0.03591325879096985
1701816365814418400,8.51641845703125,0.04620930552482605,0.03695482015609741,-0.040118392556905746
1701816365824371500,8.526371337890625,0.0543292835354805,0.032589368522167206,-0.040999364107847214
1701816365834324500,8.536324462890626,0.05344991013407707,0.025242239236831665,-0.04532806575298309
1701816365844277500,8.546277587890625,0.04827192425727844,0.024897625669836998,-0.055092547088861465
1701816365854230500,8.55623046875,0.03814152628183365,0.024294953793287277,-0.060806624591350555
1701816365864182500,8.5661826171875,0.03242318704724312,0.02057797834277153,-0.04799841716885567
1701816365874135600,8.576135498046876,0.023542344570159912,0.008045676164329052,-0.02365579456090927
1701816365884088600,8.586088623046875,0.011677960865199566,-0.001127316034398973,-0.003355849301442504
1701816365894041600,8.59604150390625,-0.0006269080913625658,-0.005559881217777729,0.007968178018927574
1701816365903994600,8.60599462890625,-0.005541239399462938,-0.0030514500103890896,0.005005944054573774
1701816365913947600,8.61594775390625,-0.0007978830835781991,-0.002406432293355465,-0.003215766977518797
1701816365923899600,8.625899658203124,0.003596332622691989,-0.002293780678883195,-0.013166667893528938
1701816365933852700,8.635852783203125,0.013129384256899357,0.004701810888946056,-0.018264491111040115
1701816365943805400,8.645805419921874,0.013735253363847733,0.010192183777689934,-0.012102202512323856
1701816365953758500,8.655758544921875,0.013011139817535877,0.018510034307837486,-0.00598518829792738
1701816365963711500,8.66571142578125,0.013369601219892502,0.0213612150400877,-0.0005185174522921443
1701816365973664500,8.67566455078125,0.011186075396835804,0.01401674933731556,-0.0004138552176300436
1701816365983616500,8.685616455078126,0.01944720186293125,0.0032618397381156683,-0.002972354181110859
1701816365993569500,8.695569580078125,0.018671687692403793,0.007647000718861818,-0.011888617649674416
1701816366003522600,8.7055224609375,0.015996010974049568,0.01344310399144888,-0.01776248589158058
1701816366013475600,8.7154755859375,0.004602741450071335,0.01653982885181904,-0.015379488468170166
1701816366023428600,8.7254287109375,-0.007445133291184902,0.016203204169869423,-0.005347627215087414
1701816366033380600,8.735380615234375,-0.0059510995633900166,0.005792907904833555,0.004020041786134243
1701816366043333600,8.745333740234376,0.0003014698449987918,-0.0004753742541652173,0.0029917950741946697
1701816366053286700,8.75528662109375,0.012136558070778847,-0.004880508873611689,-0.007684817537665367
1701816366063239700,8.76523974609375,0.02496686950325966,0.0004444815858732909,-0.02064109593629837
1701816366073192700,8.775192626953125,0.03211772069334984,0.0038780951872467995,-0.023316241800785065
1701816366083145700,8.785145751953126,0.03362134471535683,0.009789513424038887,-0.020136160776019096
1701816366093097700,8.79509765625,0.03809279203414917,0.013196229003369808,-0.009603092446923256
1701816366103050500,8.805050537109375,0.036980122327804565,0.009299758821725845,0.009238239377737045
1701816366113003500,8.81500341796875,0.029815420508384705,-0.0003709783486556262,0.017651431262493134
1701816366122956500,8.82495654296875,0.019237875938415527,-0.0019451729021966457,0.014635401777923107
1701816366132909600,8.83490966796875,0.00965715479105711,-0.015668975189328194,0.009466472081840038
1701816366142862600,8.844862548828125,-0.006866960786283016,-0.03707200288772583,0.020183032378554344
1701816366152814600,8.854814697265626,-0.022881880402565002,-0.05867822840809822,0.039015043526887894
1701816366162767600,8.864767578125,-0.05128795653581619,-0.055818792432546616,0.07965567708015442
1701816366172720600,8.874720703125,-0.0756087377667427,-0.042941074818372726,0.144316166639328
1701816366182673700,8.884673583984375,-0.07911372929811478,-0.015079083852469921,0.19667577743530273
1701816366192626400,8.89462646484375,-0.08732745051383972,0.04493871331214905,0.2094123512506485
1701816366202579500,8.904579345703125,-0.1146131306886673,0.07393893599510193,0.2067076414823532
1701816366212531500,8.914531494140626,-0.12033360451459885,0.06927361339330673,0.18567851185798645
1701816366222484500,8.924484375,-0.09006518125534058,0.06261438131332397,0.14296141266822815
1701816366232437500,8.9344375,-0.04033970087766647,0.04306597635149956,0.08413165807723999
1701816366242390500,8.944390625,0.006658435333520174,0.025608424097299576,0.03368312865495682
1701816366252343600,8.954343505859375,0.05062003433704376,0.015391739085316658,-0.0026578346733003855
1701816366262295600,8.964295654296874,0.07145553827285767,0.007339405361562967,-0.02298361249268055
1701816366272248600,8.97424853515625,0.06643708050251007,-0.0008072041091509163,-0.021091170608997345
1701816366282201600,8.98420166015625,0.04867539554834366,-0.010726413689553738,-0.005689843557775021
1701816366292154600,8.994154541015625,0.023017700761556625,-0.009048622101545334,0.014394385740160942
1701816366302107600,9.004107666015624,-0.007188404444605112,0.00666429428383708,0.025964489206671715
1701816366312060700,9.014060791015625,-0.028360268101096153,0.028390895575284958,0.024887239560484886
1701816366322012700,9.0240126953125,-0.022417157888412476,0.045458562672138214,0.00936154369264841
1701816366331965700,9.033965576171875,-0.0021643510553985834,0.05210394784808159,-0.01257890835404396
1701816366341918500,9.04391845703125,0.02598925679922104,0.05397961288690567,-0.04048031568527222
1701816366351871500,9.05387158203125,0.03922383487224579,0.0668725073337555,-0.06522640585899353
1701816366361824500,9.063824462890626,0.05161925032734871,0.08025436103343964,-0.07985515147447586
1701816366371777500,9.073777587890625,0.0541553795337677,0.08860336989164352,-0.08219873160123825
1701816366381729500,9.0837294921875,0.049374207854270935,0.09644345194101334,-0.07110373675823212
1701816366391682600,9.0936826171875,0.04062652215361595,0.09492544829845428,-0.05526085942983627
1701816366401635600,9.103635498046875,0.03694763034582138,0.08789177238941193,-0.05668964609503746
1701816366411588600,9.113588623046875,0.04572487622499466,0.06870716065168381,-0.07323905825614929
1701816366421541600,9.123541748046875,0.06802299618721008,0.02984844334423542,-0.08701559156179428
1701816366431493600,9.13349365234375,0.07601647078990936,0.001458080718293786,-0.0984000712633133
1701816366441446700,9.14344677734375,0.07559915632009506,-0.008858473040163517,-0.1040896475315094
1701816366451399700,9.153399658203124,0.0740574523806572,-0.006400375161319971,-0.10696613043546677
1701816366461352700,9.163352783203125,0.07271308451890945,-0.0004953479510731995,-0.09806105494499207
1701816366471305700,9.1733056640625,0.06502773612737656,0.004717257339507341,-0.07302254438400269
1701816366481258800,9.1832587890625,0.04941868036985397,0.005036570131778717,-0.04832279309630394
1701816366491210500,9.19321044921875,0.0353848896920681,0.004092745948582888,-0.03491590544581413
1701816366501164000,9.2031640625,0.02341424487531185,-0.001383778522722423,-0.025009479373693466
1701816366511117000,9.213116943359376,0.00851519126445055,-0.00443895673379302,-0.016985641792416573
1701816366521070000,9.223070068359375,0.004502073861658573,-0.002906307578086853,-0.015168566256761551
1701816366531023000,9.233023193359376,0.009800166822969913,-0.006643787957727909,-0.01449744962155819
1701816366540976000,9.24297607421875,0.0187798123806715,-0.013559218496084213,-0.01059112511575222
1701816366550928000,9.252927978515626,0.02564091421663761,-0.023675501346588135,-0.006000102031975985
1701816366560881000,9.262880859375,0.026818830519914627,-0.023315975442528725,-0.009632919915020466
1701816366570834000,9.272833984375,0.02256150171160698,-0.025897111743688583,-0.014073740690946579
1701816366580787000,9.282786865234375,0.013251090422272682,-0.024178573861718178,-0.01943415217101574
1701816366590740000,9.292739990234375,0.0019715381786227226,-0.019997943192720413,-0.023932762444019318
1701816366600692000,9.30269189453125,-0.00018455706594977528,-0.010243582539260387,-0.027422303333878517
1701816366610645000,9.31264501953125,0.0004982774262316525,0.0019470370607450604,-0.020976388826966286
1701816366620598000,9.322597900390624,-0.0036719664931297302,0.00652687530964613,-0.00634897593408823
1701816366630551000,9.332551025390625,-0.008176703006029129,0.013045760802924633,0.00239231763407588
1701816366640503800,9.34250390625,-0.014415957033634186,0.015232481993734837,0.008047007024288177
1701816366650456800,9.352456787109375,-0.01715927943587303,0.012881710194051266,0.005149754695594311
1701816366660409000,9.3624091796875,-0.014283065684139729,0.0041057956404984,0.004477306269109249
1701816366670362000,9.372362060546875,-0.014839133247733116,-0.004609399009495974,0.0009704558760859072
1701816366680315100,9.382315185546876,-0.013366671279072762,-0.007224357221275568,-0.007198257837444544
1701816366690268200,9.39226806640625,-0.01104226429015398,-0.005082110408693552,-0.011798868887126446
1701816366700221200,9.40222119140625,-0.0057012951001524925,-0.004734035115689039,-0.0076094502583146095
1701816366710174200,9.41217431640625,-0.0038104509003460407,0.00045327001134864986,-0.00555056007578969
1701816366720126000,9.4221259765625,-0.0008934905636124313,0.008724515326321125,-0.001978728687390685
1701816366730079000,9.432078857421875,0.001472728094086051,0.011578625068068504,-0.0008364989189431071
1701816366740032000,9.442031982421875,0.009819873608648777,0.010041182860732079,-0.0022538332268595695
1701816366749985000,9.451985107421875,0.01595366559922695,0.0013821806060150266,-0.0034445326309651136
1701816366759938000,9.46193798828125,0.01998782344162464,-0.011696070432662964,-0.004102599807083607
1701816366769891000,9.47189111328125,0.014059892855584621,-0.012772253714501858,-0.007429420482367277
1701816366779843000,9.481843017578125,0.006428338121622801,-0.011302988044917583,-0.003350256709381938
1701816366789795800,9.4917958984375,-0.003430950455367565,-0.010424410924315453,0.003317766124382615
1701816366799748900,9.501748779296875,-0.01239035651087761,-0.007786550559103489,0.01161830686032772
1701816366809702000,9.511701904296874,-0.02082405611872673,-0.0062464443035423756,0.014651114121079445
1701816366819655000,9.521655029296875,-0.02544330805540085,-0.005376123357564211,0.012149606831371784
1701816366829607000,9.53160693359375,-0.02707129903137684,-0.007905327714979649,0.00683154072612524
1701816366839560000,9.541559814453125,-0.01501250546425581,-0.012239355593919754,0.0010210559703409672
1701816366849513000,9.551512939453126,-0.0007443535141646862,-0.0075668394565582275,-0.003930559381842613
1701816366859466000,9.561466064453125,0.013006612658500671,0.006400641519576311,-0.01127928588539362
1701816366869419000,9.5714189453125,0.018873022869229317,0.02526540867984295,-0.017650099471211433
1701816366879371800,9.581371826171875,0.01918967254459858,0.04282602667808533,-0.016091885045170784
1701816366889324000,9.591323974609375,0.01618136651813984,0.042213499546051025,-0.007203318178653717
1701816366899277000,9.601277099609375,0.011454255320131779,0.0173848494887352,0.009544769302010536
1701816366909230000,9.61122998046875,0.0030221552588045597,-0.012210327200591564,0.018515627831220627
1701816366919183000,9.62118310546875,-0.007302387617528439,-0.027034547179937363,0.013950436376035213
1701816366929136000,9.63113623046875,-0.01347293145954609,-0.028490763157606125,0.008055263198912144
1701816366939089200,9.641089111328125,-0.008584965951740742,-0.025074193254113197,0.005225388333201408
1701816366949041000,9.651041015625,0.000984836951829493,-0.01587750017642975,0.0034767568577080965
1701816366958994000,9.660993896484374,0.015556322410702705,-0.0033073797821998596,0.007589210290461779
1701816366968947000,9.670947021484375,0.021516744047403336,0.0037523938808590174,0.013188506476581097
1701816366978900000,9.68089990234375,0.024447552859783173,0.0036701022181659937,0.020430706441402435
1701816366988853000,9.69085302734375,0.018037589266896248,0.002284725895151496,0.020965470001101494
1701816366998805000,9.700804931640626,0.01158688124269247,0.0070131681859493256,0.011199391447007656
1701816367008758000,9.710758056640625,0.01227717287838459,0.020672254264354706,0.0027089675422757864
1701816367018711000,9.7207109375,0.020077304914593697,0.03247671574354172,-0.005880525801330805
1701816367028663800,9.730663818359375,0.032104939222335815,0.03563309460878372,-0.010455836541950703
1701816367038616800,9.740616943359376,0.04139484465122223,0.02839435636997223,-0.006640325766056776
1701816367048569900,9.75056982421875,0.04812784865498543,0.02414128929376602,-0.006187588442116976
1701816367058522000,9.760522216796875,0.054062437266111374,0.014253504574298859,-0.005321528296917677
1701816367068475100,9.77047509765625,0.05113881826400757,0.023380689322948456,-0.01073759887367487
1701816367078428000,9.780427978515625,0.04806899279356003,0.0294356532394886,-0.016513196751475334
1701816367088381000,9.790380859375,0.04541515186429024,0.02375619485974312,-0.019360382109880447
1701816367098334000,9.800333984375,0.047291349619627,0.022161761298775673,-0.013875335454940796
1701816367108287000,9.810286865234374,0.05079979822039604,0.026205504313111305,-0.0117312241345644
1701816367118239000,9.820239013671875,0.05627605691552162,0.03552550449967384,-0.012430837377905846
1701816367128192000,9.83019189453125,0.06633374840021133,0.039986297488212585,-0.009386577643454075
1701816367138145000,9.84014501953125,0.07350777089595795,0.03792927414178848,-0.007184143178164959
1701816367148098000,9.85009814453125,0.07824979722499847,0.029563751071691513,-0.007809187285602093
1701816367158051000,9.860051025390625,0.08136596530675888,0.019785422831773758,-0.011715511791408062
1701816367168004000,9.870004150390624,0.07690809667110443,0.018557971343398094,-0.021044565364718437
1701816367177956000,9.8799560546875,0.06494650989770889,0.026489663869142532,-0.03726161643862724
1701816367187908900,9.889908935546876,0.06381120532751083,0.048476722091436386,-0.058405786752700806
1701816367197862000,9.89986181640625,0.0685441717505455,0.0814003199338913,-0.07747402042150497
1701816367207815000,9.90981494140625,0.0793297067284584,0.11461739242076874,-0.09471292793750763
1701816367217768000,9.919767822265625,0.08727125823497772,0.15576748549938202,-0.11581288278102875
1701816367227720000,9.929719970703125,0.08595006167888641,0.19095291197299957,-0.12619549036026
1701816367237673000,9.9396728515625,0.0777006521821022,0.20004920661449432,-0.11941933631896973
1701816367247626000,9.9496259765625,0.060681723058223724,0.17618674039840698,-0.09599657356739044
1701816367257579000,9.9595791015625,0.033793650567531586,0.1413014680147171,-0.06969598680734634
1701816367267531800,9.96953173828125,-0.0031406658235937357,0.10749929398298264,-0.05380517616868019
1701816367277484800,9.97948486328125,-0.04807298630475998,0.08678948879241943,-0.04152613878250122
1701816367287437000,9.98943701171875,-0.07857123762369156,0.06747917830944061,-0.033317212015390396
1701816367297390000,9.99939013671875,-0.08949606120586395,0.05650428682565689,-0.03201039880514145
1701816367307343000,10.009343017578125,-0.07869481295347214,0.05055665224790573,-0.028720594942569733
1701816367317296000,10.019296142578124,-0.050751861184835434,0.04550543427467346,-0.0284673273563385
1701816367327249200,10.029249267578125,-0.030113693326711655,0.04854889214038849,-0.02997600845992565
1701816367337202200,10.0392021484375,-0.01500930916517973,0.05337773635983467,-0.02852325327694416
1701816367347154000,10.04915380859375,0.0013044163351878524,0.06536409258842468,-0.023636620491743088
1701816367357107000,10.05910693359375,0.01245027780532837,0.07129814475774765,0.01519812736660242
1701816367367060000,10.06906005859375,0.018249044194817543,0.03098481334745884,0.08026447892189026
1701816367377013000,10.079012939453126,0.023728499189019203,-0.008945558220148087,0.1450120508670807
1701816367386966000,10.088966064453125,0.04063504561781883,-0.05143949016928673,0.20212674140930176
1701816367396918000,10.09891796875,0.05809073522686958,-0.0972738191485405,0.23966345191001892
1701816367406871000,10.10887109375,0.05415671318769455,-0.1259201169013977,0.2079302966594696
1701816367416824000,10.118823974609375,0.04138818755745888,-0.12034372240304947,0.1103251725435257
1701816367426776800,10.12877685546875,0.04903145879507065,-0.1030411645770073,0.024108266457915306
1701816367436729900,10.138729736328125,0.07369019836187363,-0.11655005067586899,-0.01936757192015648
1701816367446683000,10.148682861328124,0.09182526171207428,-0.12073813378810883,-0.04921628162264824
1701816367456635000,10.158634765625,0.10525451600551605,-0.07088962197303772,-0.06202555447816849
1701816367466588000,10.168587890625,0.11493537575006485,-0.021748704835772514,-0.03777214512228966
1701816367476541000,10.178541015625,0.11308234930038452,0.016283364966511726,0.009651562198996544
1701816367486494000,10.188493896484376,0.0948207825422287,0.04555683210492134,0.05651387572288513
1701816367496447200,10.198447265625,0.06793005019426346,0.05740736797451973,0.10794617235660553
1701816367506400300,10.208400146484376,0.0328330472111702,0.051355600357055664,0.1474216729402542
1701816367516352300,10.218352294921875,-0.009316270239651203,0.04219326004385948,0.15695179998874664
1701816367526305300,10.22830517578125,-0.04836220666766167,0.009310144931077957,0.12903042137622833
1701816367536258300,10.23825830078125,-0.07485879212617874,-0.03230813890695572,0.0695849359035492
1701816367546211300,10.24821142578125,-0.07836031913757324,-0.04911215230822563,-0.004477039910852909
1701816367556164400,10.258164306640625,-0.07365291565656662,-0.040609210729599,-0.05422542244195938
1701816367566117400,10.268117431640626,-0.06540803611278534,-0.005980127956718206,-0.0671289712190628
1701816367576069400,10.2780693359375,-0.0571218766272068,0.04553792253136635,-0.045460693538188934
1701816367586022100,10.288022216796875,-0.051235225051641464,0.09129928797483444,-0.011501393280923367
1701816367595975200,10.29797509765625,-0.05486857518553734,0.11213719099760056,0.022491727024316788
1701816367605928200,10.30792822265625,-0.060620203614234924,0.11488637328147888,0.04809162765741348
1701816367615881200,10.317881103515624,-0.07134927809238434,0.08300726860761642,0.06637422740459442
1701816367625833200,10.327833251953125,-0.08039044588804245,0.03609701618552208,0.06792578846216202
1701816367635786200,10.3377861328125,-0.08884332329034805,-0.0003608583356253803,0.05528136342763901
1701816367645739300,10.3477392578125,-0.09595715254545212,-0.026909910142421722,0.026553846895694733
1701816367655692300,10.3576923828125,-0.0871889665722847,-0.03837961331009865,-0.0046333675272762775
1701816367665645000,10.36764501953125,-0.06506794691085815,-0.030435403808951378,-0.03170812875032425
1701816367675598000,10.37759814453125,-0.03928242623806,-0.01062334980815649,-0.042508844286203384
1701816367685550300,10.38755029296875,-0.015731824561953545,0.01073972973972559,-0.03243250772356987
1701816367695503400,10.39750341796875,0.0054970309138298035,0.02497379295527935,-0.002520149340853095
1701816367705456400,10.407456298828125,0.009638778865337372,0.034452516585588455,0.03199441730976105
1701816367715409200,10.4174091796875,0.005417935084551573,0.03598649799823761,0.04321937635540962
1701816367725362200,10.427362060546875,0.0032080437522381544,0.03901371359825134,0.03473614156246185
1701816367735315200,10.437315185546876,-0.0013749900972470641,0.03888960927724838,0.007821171544492245
1701816367745267200,10.44726708984375,0.0024650217965245247,0.029445772990584373,-0.020954815670847893
1701816367755220200,10.45722021484375,0.014473481103777885,0.015454856678843498,-0.03645068407058716
1701816367765173200,10.46717333984375,0.03376089408993721,0.0013440974289551377,-0.0401383638381958
1701816367775126300,10.477126220703125,0.05018221214413643,-0.0027302727103233337,-0.03266686573624611
1701816367785079300,10.487079345703124,0.057382866740226746,-0.0000327568814100232,-0.02141847275197506
1701816367795031300,10.49703125,0.0606609508395195,-0.0007163903210312128,-0.013379987329244614
1701816367804984300,10.506984375,0.06175684183835983,-0.0009763148264028132,-0.017010675743222237
1701816367814937300,10.516937255859375,0.06916681677103043,0.0067692226730287075,-0.04104011133313179
1701816367824890000,10.52689013671875,0.07565241307020187,0.01738298498094082,-0.06017279252409935
1701816367834843100,10.536843017578125,0.07830172777175903,0.017187509685754776,-0.06436114758253098
1701816367844796200,10.546796142578126,0.08340301364660263,0.01866263337433338,-0.0589943453669548
1701816367854748200,10.556748046875,0.08222243189811707,0.026856914162635803,-0.05149834603071213
1701816367864701200,10.566701171875,0.07916033267974854,0.03536544740200043,-0.043593015521764755
1701816367874654200,10.576654296875,0.07279297709465027,0.04111441224813461,-0.03586665540933609
1701816367884607200,10.586607177734376,0.05999888852238655,0.03933488950133324,-0.032513733953237534
1701816367894560300,10.596560302734375,0.0508061908185482,0.030890271067619324,-0.03472868725657463
1701816367904513300,10.60651318359375,0.051407262682914734,0.022660572081804276,-0.037094637751579285
1701816367914465300,10.61646533203125,0.050387006253004074,0.015669507905840874,-0.03987471014261246
1701816367924418300,10.626418212890625,0.04356478899717331,0.02592560648918152,-0.04156608507037163
1701816367934371300,10.636371337890624,0.04337703436613083,0.039145536720752716,-0.04493684694170952
1701816367944324400,10.646324462890625,0.040756482630968094,0.05255348980426788,-0.03971678763628006
1701816367954277400,10.65627734375,0.037515684962272644,0.06475929170846939,-0.03858600929379463
1701816367964229400,10.6662294921875,0.032050877809524536,0.06944458931684494,-0.03280854597687721
1701816367974182100,10.67618212890625,0.02442837692797184,0.06811806559562683,-0.025959162041544914
1701816367984135200,10.68613525390625,0.015111574903130531,0.054299190640449524,-0.02213965728878975
1701816367994088200,10.696088134765626,0.014337926171720028,0.0312841534614563,-0.01942749321460724
1701816368004041200,10.706041259765625,0.020482372492551804,0.009861685335636139,-0.017772072926163673
1701816368013994200,10.715994140625,0.021337512880563736,-0.009048089385032654,-0.017531855031847954
1701816368023946200,10.7259462890625,0.018967831507325172,-0.011796205304563046,-0.014508368447422981
1701816368033899300,10.735899169921876,0.014780543744564056,-0.0034823494497686625,-0.01203668862581253
1701816368043852300,10.745852294921875,0.008098939433693886,0.004608067683875561,-0.006144977640360594
1701816368053805300,10.755805419921876,0.0031963258516043425,0.013748036697506905,-0.002245843643322587
1701816368063758000,10.765758056640625,0.0006210491410456598,0.019104452803730965,-0.006198507267981768
1701816368073711000,10.775711181640625,-0.0014708638191223145,0.01817474327981472,-0.00920468382537365
1701816368083663000,10.7856630859375,-0.00040986048406921327,0.016467656940221786,-0.011997274123132229
1701816368093616000,10.7956162109375,-0.002972354181110859,0.017479658126831055,-0.01816409081220627
1701816368103569200,10.805569091796874,-0.003102582646533847,0.015077220275998116,-0.021699436008930206
1701816368113522200,10.815522216796875,0.0007344998302869499,0.010718690231442451,-0.02257215417921543
1701816368123475200,10.82547509765625,0.002924417145550251,0.013194898143410683,-0.01949167624115944
1701816368133428200,10.83542822265625,-0.0017382452497258782,0.014962437562644482,-0.012587430886924267
1701816368143380200,10.845380126953126,-0.0054299188777804375,0.01678909920156002,-0.011202586814761162
1701816368153333200,10.855333251953125,-0.006375607568770647,0.022344719618558884,-0.01564047858119011
1701816368163286300,10.865286376953126,-0.005185973364859819,0.027030285447835922,-0.01792174205183983
1701816368173239300,10.8752392578125,-0.00785286258906126,0.03287805616855621,-0.015911055728793144
1701816368183192300,10.8851923828125,-0.012397280894219875,0.03653830289840698,-0.0188961923122406
1701816368193144300,10.895144287109375,-0.011130149476230145,0.036742303520441055,-0.021377194672822952
1701816368203097300,10.905097412109376,-0.010853978805243969,0.02780286967754364,-0.021950572729110718
1701816368213050000,10.915050048828125,-0.006912501063197851,0.01435177493840456,-0.01980007067322731
1701816368223003100,10.925003173828125,-0.004312190227210522,0.006896788254380226,-0.016882842406630516
1701816368232956200,10.9349560546875,-0.004453870467841625,0.00452684098854661,-0.012399944476783276
1701816368242909200,10.9449091796875,-0.008020642213523388,0.006386792752891779,-0.006609433330595493
1701816368252861200,10.954861083984374,-0.014318485744297504,0.01221778430044651,-0.0005432848702184856
1701816368262814200,10.964814208984375,-0.013022058643400669,0.01384124718606472,0.002491120947524905
1701816368272767200,10.974767333984374,-0.010588995181024075,0.015813317149877548,0.00370179396122694
1701816368282720300,10.98472021484375,-0.010553308762609959,0.01595339924097061,0.0035625104792416096
1701816368292673300,10.99467333984375,-0.013021525926887989,0.010096309706568718,0.004465854726731777
1701816368302626000,11.0046259765625,-0.01787806674838066,0.005801429972052574,0.007525027729570866
1701816368312578300,11.014578369140626,-0.017406420782208443,0.0026325348298996687,0.009662747383117676
1701816368322531300,11.02453125,-0.01648549921810627,0.0041010016575455666,0.00689066294580698
1701816368332484400,11.034484375,-0.012951484881341457,0.001555552356876433,0.0075689698569476604
1701816368342437400,11.044437255859375,-0.009952499531209469,0.0051569449715316296,0.011019893921911716
1701816368352390400,11.054390380859376,-0.008290420286357403,0.010666226036846638,0.011122692376375198
1701816368362342400,11.06434228515625,-0.007626760751008987,0.014984807930886745,0.010465689934790134
1701816368372295200,11.074295166015625,-0.0064863949082791805,0.008371912874281406,0.010175406001508236
1701816368382248200,11.084248291015625,-0.009912019595503807,0.0031348068732768297,0.004357996862381697
1701816368392201200,11.094201171875,-0.009258479811251163,-0.0012924320762977004,-0.0056978329084813595
1701816368402154200,11.104154296875,-0.006963367108255625,0.004987834487110376,-0.012526710517704487
1701816368412107300,11.114107177734375,-0.004612328484654427,0.007686149328947067,-0.01076929084956646
1701816368422059300,11.124059326171874,-0.010214287787675858,0.015913985669612885,0.006473079323768616
1701816368432012300,11.13401220703125,-0.016988836228847504,0.02346990630030632,0.030540065839886665
1701816368441965300,11.14396533203125,-0.023728499189019203,0.032227709889411926,0.051784634590148926
1701816368451918000,11.15391796875,-0.035000063478946686,0.038730885833501816,0.0802447721362114
1701816368461871000,11.16387109375,-0.056403886526823044,0.036191027611494064,0.10834937542676926
1701816368471824100,11.17382421875,-0.0748356282711029,0.027693413197994232,0.12922802567481995
1701816368481776000,11.183776123046876,-0.09314432740211487,0.0169086754322052,0.14929494261741638
1701816368491729200,11.193729248046875,-0.10445316880941391,0.004767058417201042,0.1552385836839676
1701816368501682200,11.20368212890625,-0.10949134081602097,-0.00370072852820158,0.14210228621959686
1701816368511635200,11.21363525390625,-0.10599754005670547,-0.012857741676270962,0.12162017077207565
1701816368521588200,11.223588134765626,-0.0970836728811264,-0.019391806796193123,0.09919262677431107
1701816368531541200,11.233541259765625,-0.08275799453258514,-0.018278872594237328,0.08651971071958542
1701816368541493500,11.243493408203125,-0.06746505945920944,-0.029174929484725,0.08315747231245041
1701816368551446500,11.253446533203125,-0.06499897688627243,-0.026448385789990425,0.07316102832555771
1701816368561399300,11.2633994140625,-0.06715746223926544,-0.01894439570605755,0.07251574844121933
1701816368571352300,11.273352294921875,-0.07607000321149826,-0.009546633809804916,0.07763354480266571
1701816368581305300,11.283305419921875,-0.08532315492630005,-0.0018269284628331661,0.08347944915294647
1701816368591257300,11.29325732421875,-0.0891013815999031,0.011682755313813686,0.08939485996961594
1701816368601210400,11.30321044921875,-0.0905836969614029,0.016139023005962372,0.08825928717851639
1701816368611163400,11.313163330078124,-0.09211048483848572,0.011361311189830303,0.08679454773664474
1701816368621116400,11.323116455078125,-0.08641079068183899,0.010486196726560593,0.0793914943933487
1701816368631069400,11.3330693359375,-0.07865246385335922,0.006332997232675552,0.06565224379301071
1701816368641022200,11.343022216796875,-0.06726133078336716,0.001972337020561099,0.04879177361726761
1701816368650974200,11.35297412109375,-0.05385470762848854,0.0019563580863177776,0.025712553411722183
1701816368660927200,11.36292724609375,-0.03629568964242935,0.0032831449061632156,0.008947156369686127
1701816368670880300,11.37288037109375,-0.02087412215769291,0.0015686018159613013,-0.005918875336647034
1701816368680833300,11.382833251953125,-0.010418551973998547,0.00021678130724467337,-0.012307532131671906
1701816368690786300,11.392786376953126,-0.002924417145550251,0.0022248048335313797,-0.01798299513757229
1701816368700739300,11.4027392578125,-0.003564641112461686,0.004866660572588444,-0.020434968173503876
1701816368710691300,11.41269140625,0.0021859225817024708,0.00800546258687973,-0.021139640361070633
1701816368720644400,11.422644287109375,0.0033574472181499004,0.011373828165233135,-0.02189730852842331
1701816368730597400,11.432597412109375,0.0018820558907464147,0.011204184964299202,-0.018160361796617508
1701816368740550400,11.44255029296875,0.002177400514483452,0.007529288996011019,-0.014124607667326927
1701816368750503400,11.45250341796875,0.0036448021419346333,0.004504736978560686,-0.014940067194402218
1701816368760456400,11.46245654296875,0.013453491032123566,0.002520415699109435,-0.015548866242170334
1701816368770408400,11.472408447265625,0.02412344515323639,0.004460794851183891,-0.012981578707695007
1701816368780361500,11.482361572265624,0.03395290672779083,0.007813448086380959,-0.015441806986927986
1701816368790314500,11.492314453125,0.0410425066947937,0.009648365899920464,-0.019038138911128044
1701816368800267300,11.502267333984374,0.043710995465517044,0.009449427947402,-0.023874439299106598
1701816368810220300,11.51222021484375,0.03536731004714966,0.010872088372707367,-0.020451745018363
1701816368820172300,11.52217236328125,0.021921543404459953,0.01119113527238369,-0.013500096276402473
1701816368830125300,11.532125244140625,0.012782640755176544,0.010124007239937782,-0.007137005217373371
1701816368840078300,11.542078369140626,0.011291536502540112,0.012078766711056232,-0.00384374032728374
1701816368850031400,11.55203125,0.00771730812266469,0.011598066426813602,-0.003867176128551364
1701816368859984400,11.561984375,0.006317284423857927,0.006414756178855896,0.0007233145297504961
1701816368869937400,11.5719375,-0.0009475527331233025,0.007635549176484346,0.0008767126128077507
1701816368879889200,11.58188916015625,-0.01209687627851963,0.008972189389169216,-0.000035420041967881843
1701816368889842200,11.59184228515625,-0.018819494172930717,0.004070375580340624,0.004884770140051842
1701816368899795200,11.601795166015625,-0.017138773575425148,0.002810700098052621,0.00627094553783536
1701816368909748200,11.611748291015624,-0.011115767993032932,0.005264536943286657,0.005844573490321636
1701816368919701200,11.621701171875,-0.006383330561220646,0.004061587154865265,0.0043958136811852455
1701816368929654300,11.631654296875,-0.0030860709957778454,0.002799248555675149,0.00666322885081172
1701816368939606500,11.6416064453125,-0.002547047333791852,0.006188653875142336,0.00936047825962305
1701816368949559300,11.651559326171874,-0.0020631509833037853,0.008401207625865936,0.016885239630937576
1701816368959512300,11.66151220703125,-0.003525226376950741,0.007333014160394669,0.025191107764840126
1701816368969465300,11.67146533203125,-0.009244897402822971,0.0022218753583729267,0.03391855210065842
1701816368979418400,11.68141845703125,-0.02466726303100586,-0.0015893745003268123,0.04180470481514931
1701816368989370400,11.691370361328126,-0.034501783549785614,-0.006367085501551628,0.042517632246017456
1701816368999323400,11.701323486328125,-0.03997298330068588,-0.0086603332310915,0.04138286039233208
1701816369009276400,11.7112763671875,-0.039976444095373154,-0.011817244812846184,0.03959667682647705
1701816369019229400,11.7212294921875,-0.041490450501441956,-0.007016630377620459,0.038363367319107056
1701816369029182500,11.731182373046876,-0.040712807327508926,-0.003695935010910034,0.04115808755159378
1701816369039135200,11.74113525390625,-0.038777224719524384,-0.001178448786959052,0.04133811965584755
1701816369049087200,11.751087158203125,-0.023622771725058556,-0.0032139027025550604,0.036799825727939606
1701816369059040300,11.761040283203124,-0.0035292210523039103,-0.012105398811399937,0.03154487535357475
1701816369068993300,11.7709931640625,0.007881891913712025,-0.013805028051137924,0.03009505197405815
1701816369078946300,11.7809462890625,0.0031558459158986807,-0.024455541744828224,0.03395184129476547
1701816369088899300,11.7908994140625,-0.006524744443595409,-0.05393007770180702,0.042643334716558456
1701816369098852400,11.800852294921874,-0.008459797129034996,-0.08375614881515503,0.03639129549264908
1701816369108804400,11.810804443359375,-0.014856976456940174,-0.10570991784334183,0.020539097487926483
1701816369118757000,11.820757080078126,-0.017235711216926575,-0.11204051971435547,0.01107502169907093
1701816369128710100,11.830710205078125,-0.017608821392059326,-0.09319332987070084,0.020733507350087166
1701816369138663200,11.8406630859375,-0.03513961285352707,-0.04896514490246773,0.057523213326931
1701816369148616200,11.8506162109375,-0.06930556893348694,0.01350595522671938,0.13173805177211761
1701816369158569200,11.8605693359375,-0.10767000168561935,0.06132807210087776,0.2226772904396057
1701816369168521500,11.870521484375,-0.1421896368265152,0.10787826031446457,0.29802635312080383
1701816369178474500,11.880474609375,-0.17831914126873016,0.15262922644615173,0.36093050241470337
1701816369188427300,11.89042724609375,-0.21831156313419342,0.21943914890289307,0.4309074580669403
1701816369198380300,11.90038037109375,-0.25918149948120117,0.2527046799659729,0.4988960921764374
1701816369208333300,11.910333251953125,-0.29744765162467957,0.2586432695388794,0.5644931793212891
1701816369218285300,11.920285400390625,-0.33056458830833435,0.24270212650299072,0.5904949903488159
1701816369228238300,11.93023828125,-0.36833247542381287,0.21499885618686676,0.5746446251869202
1701816369238191400,11.94019140625,-0.3691841661930084,0.16316255927085876,0.5281871557235718
1701816369248144400,11.950144287109374,-0.3478216230869293,0.09678486734628677,0.4566256105899811
1701816369258097400,11.960097412109375,-0.34056076407432556,0.047928109765052795,0.38325604796409607
