time,seconds_elapsed,z,y,x
1701816357320928000,0.022927978515625,0.12226075679063797,-0.10832612216472626,0.10292071104049683
1701816357330881000,0.032881103515625,0.1298539787530899,-0.11312700062990189,0.11960221827030182
1701816357340834000,0.042833984375,0.12916424870491028,-0.11297639459371567,0.1279010772705078
1701816357350786000,0.0527861328125,0.1283474564552307,-0.11031322926282883,0.13088834285736084
1701816357360739000,0.062739013671875,0.1246560737490654,-0.12257774919271469,0.1185905858874321
1701816357370692000,0.072692138671875,0.1253245323896408,-0.1408448964357376,0.08904441446065903
1701816357380645000,0.08264501953125,0.1414320468902588,-0.149674654006958,0.05879171937704086
1701816357390598100,0.09259814453125,0.13654488325119019,-0.1464676707983017,0.04440372437238693
1701816357400551200,0.10255126953125,0.1244610920548439,-0.137320876121521,0.0466134138405323
1701816357410503200,0.112503173828125,0.11535254865884781,-0.11761588603258133,0.05079590901732445
1701816357420456200,0.122456298828125,0.10578623414039612,-0.09568143635988235,0.05198345333337784
1701816357430409000,0.132408935546875,0.0916038304567337,-0.07620201259851456,0.05633905529975891
1701816357440362000,0.142362060546875,0.08020440489053726,-0.058786679059267044,0.053671177476644516
1701816357450315000,0.15231494140625,0.07396967709064484,-0.047608327120542526,0.03694599121809006
1701816357460268000,0.16226806640625,0.0660652369260788,-0.04074333980679512,0.019494859501719475
1701816357470220000,0.172219970703125,0.059823326766490936,-0.036251917481422424,-0.004664006642997265
1701816357480173000,0.182173095703125,0.05170498788356781,-0.023594284430146217,-0.02912774309515953
1701816357490125300,0.192125244140625,0.044462524354457855,-0.009756233543157578,-0.060327474027872086
1701816357500078300,0.202078369140625,0.036050137132406235,0.01397884264588356,-0.09395283460617065
1701816357510031400,0.21203125,0.024545814841985703,0.034026850014925,-0.12505243718624115
1701816357519983600,0.221983642578125,0.011899429373443127,0.036860913038253784,-0.14614573121070862
1701816357529936600,0.2319365234375,-0.00046722497791051865,0.022485168650746346,-0.1717885136604309
1701816357539889400,0.241889404296875,-0.01217577699571848,0.0009272065944969654,-0.20669065415859222
1701816357549842400,0.251842529296875,-0.02123025804758072,-0.017470708116889,-0.23099279403686523
1701816357559795500,0.26179541015625,-0.03204770013689995,-0.03217855095863342,-0.2390526533126831
1701816357569748500,0.27174853515625,-0.04853080213069916,-0.04550793766975403,-0.2324695885181427
1701816357579700500,0.281700439453125,-0.06414526700973511,-0.05973406881093979,-0.22255049645900726
1701816357589653500,0.291653564453125,-0.07848745584487915,-0.07156702876091003,-0.21346725523471832
1701816357599606500,0.3016064453125,-0.09372974932193756,-0.07790625095367432,-0.19687356054782867
1701816357609559600,0.3115595703125,-0.10845250636339188,-0.07432776689529419,-0.17860162258148193
1701816357619512600,0.3215126953125,-0.12277700752019882,-0.06805051863193512,-0.16775839030742645
1701816357629465300,0.33146533203125,-0.1318061798810959,-0.06750324368476868,-0.16257108747959137
1701816357639417300,0.341417236328125,-0.14036616683006287,-0.07681860029697418,-0.1485501378774643
1701816357649370400,0.351370361328125,-0.14724938571453094,-0.09360557049512863,-0.129404678940773
1701816357659323400,0.361323486328125,-0.15817448496818542,-0.10991614311933517,-0.10814067721366882
1701816357669276400,0.3712763671875,-0.17284956574440002,-0.12430253624916077,-0.08141399174928665
1701816357679229400,0.3812294921875,-0.19268986582756042,-0.12819764018058777,-0.057777851819992065
1701816357689181400,0.391181396484375,-0.208296000957489,-0.12238980829715729,-0.028988013043999672
1701816357699134500,0.401134521484375,-0.22408337891101837,-0.10397815704345703,0.001664722803980112
1701816357709087500,0.41108740234375,-0.23204250633716583,-0.08010238409042358,0.03312118351459503
1701816357719040500,0.42104052734375,-0.23246198892593384,-0.06458242237567902,0.07620561867952347
1701816357728993500,0.43099365234375,-0.22186553478240967,-0.05974239483475685,0.12231798470020294
1701816357738946600,0.440946533203125,-0.20163434743881226,-0.06115243211388588,0.1655130684375763
1701816357748898600,0.450898681640625,-0.18225957453250885,-0.06536795198917389,0.20711751282215118
1701816357758851600,0.4608515625,-0.17393037676811218,-0.07124359160661697,0.23814794421195984
1701816357768804600,0.4708046875,-0.1599852740764618,-0.06664671003818512,0.24184948205947876
1701816357778757400,0.48075732421875,-0.14698965847492218,-0.05914970114827156,0.22065165638923645
1701816357788710400,0.49071044921875,-0.1486237794160843,-0.034443557262420654,0.18981358408927917
1701816357798662400,0.500662353515625,-0.16058629751205444,-0.01702680066227913,0.16359709203243256
1701816357808615400,0.510615478515625,-0.16183745861053467,-0.0003460901789367199,0.13627998530864716
1701816357818568400,0.520568359375,-0.15035592019557953,0.014013870619237423,0.09949510544538498
1701816357828521500,0.530521484375,-0.13131991028785706,0.018500231206417084,0.07068955898284912
1701816357838474500,0.540474609375,-0.09327404201030731,0.022027160972356796,0.05465353652834892
1701816357848427500,0.550427490234375,-0.04951031506061554,0.013306107372045517,0.05585888400673866
1701816357858379300,0.560379150390625,-0.012267827056348324,-0.011224374175071716,0.07717089354991913
1701816357868332300,0.570332275390625,0.030781373381614685,-0.03272540494799614,0.09329020977020264
1701816357878285300,0.580285400390625,0.0560513511300087,-0.03539692610502243,0.08637909591197968
1701816357888238300,0.59023828125,0.055805809795856476,-0.031281277537345886,0.06302424520254135
1701816357898191400,0.60019140625,0.0541154146194458,-0.029316453263163567,0.027110593393445015
1701816357908144400,0.610144287109375,0.05821588262915611,-0.0228942409157753,-0.005605275742709637
1701816357918096600,0.6200966796875,0.0638960599899292,-0.020726362243294716,-0.03213576599955559
1701816357928049700,0.630049560546875,0.0697089433670044,-0.021750081330537796,-0.050888679921627045
1701816357938002400,0.64000244140625,0.07980906963348389,-0.024442048743367195,-0.05659507215023041
1701816357947955500,0.64995556640625,0.08467146754264832,-0.03547366335988045,-0.05402565747499466
1701816357957908500,0.659908447265625,0.0856064185500145,-0.05342385545372963,-0.042834751307964325
1701816357967861500,0.669861572265625,0.08126307278871536,-0.07564473897218704,-0.02890801429748535
1701816357977813500,0.6798134765625,0.07603930681943893,-0.09500401467084885,-0.02132730931043625
1701816357987766500,0.6897666015625,0.06540770083665848,-0.10839331895112991,-0.024505790323019028
1701816357997719600,0.699719482421875,0.059680018573999405,-0.11519481241703033,-0.03750496357679367
1701816358007672600,0.709672607421875,0.05544133111834526,-0.11438867449760437,-0.053906042128801346
1701816358017625300,0.719625244140625,0.05526409670710564,-0.09789203107357025,-0.07009601593017578
1701816358027577300,0.729577392578125,0.055557575076818466,-0.08148136734962463,-0.08434686064720154
1701816358037530400,0.7395302734375,0.05447794497013092,-0.06319928914308548,-0.08748923987150192
1701816358047483400,0.7494833984375,0.05328404903411865,-0.05312880501151085,-0.08405216783285141
1701816358057436400,0.7594365234375,0.04870099574327469,-0.05566105991601944,-0.07333803921937943
1701816358067389400,0.769389404296875,0.04167744144797325,-0.06542527675628662,-0.0632699579000473
1701816358077342500,0.779342529296875,0.03225719556212425,-0.07754957675933838,-0.054190684109926224
1701816358087294500,0.78929443359375,0.0148430485278368,-0.0865103155374527,-0.05205536261200905
1701816358097247500,0.79924755859375,-0.0022234804928302765,-0.08975793421268463,-0.052507124841213226
1701816358107200500,0.809200439453125,-0.016909215599298477,-0.08791103214025497,-0.05377132445573807
1701816358117153300,0.8191533203125,-0.027872351929545403,-0.08264625817537308,-0.05321597680449486
1701816358127106300,0.829106201171875,-0.033297743648290634,-0.07525438815355301,-0.04298437759280205
1701816358137059300,0.839059326171875,-0.03435772284865379,-0.06949439644813538,-0.029342662543058395
1701816358147011600,0.849011474609375,-0.03481419011950493,-0.06062660738825798,-0.020626667886972427
1701816358156964600,0.858964599609375,-0.03435707464814186,-0.05558185279369354,-0.01591869257390499
1701816358166917600,0.868917724609375,-0.0390639454126358,-0.05310297757387161,-0.01740899868309498
1701816358176870400,0.878870361328125,-0.050514914095401764,-0.05646756291389465,-0.018846184015274048
1701816358186823400,0.888823486328125,-0.05700743570923805,-0.05007996782660484,-0.017441369593143463
1701816358196775400,0.898775390625,-0.0670345351099968,-0.04842645302414894,-0.01010303944349289
1701816358206728400,0.908728515625,-0.07372146099805832,-0.038161300122737885,-0.001719941385090351
1701816358216681500,0.918681396484375,-0.08071384578943253,-0.023843592032790184,0.0005364266689866781
1701816358226634500,0.928634521484375,-0.08511579036712646,-0.0153273344039917,-0.0016231304034590721
1701816358236587500,0.93858740234375,-0.08539090305566788,-0.008829077705740929,-0.001518778968602419
1701816358246540500,0.94854052734375,-0.0795721635222435,-0.00735954474657774,0.0014317373279482126
1701816358256492300,0.9584921875,-0.07476352900266647,0.004363298416137695,0.006146782077848911
1701816358266445300,0.9684453125,-0.06624168157577515,0.0096275694668293,0.0076272329315543175
1701816358276398300,0.9783984375,-0.05581682547926903,0.020520374178886414,0.008566942065954208
1701816358286351400,0.988351318359375,-0.04555566608905792,0.025360669940710068,0.012270866893231869
1701816358296304400,0.998304443359375,-0.033177562057971954,0.02898017130792141,0.016364146023988724
1701816358306257400,1.00825732421875,-0.022177638486027718,0.03468786180019379,0.025234602391719818
1701816358316209700,1.018209716796875,-0.010613694787025452,0.03193444386124611,0.033137451857328415
1701816358326162400,1.028162353515625,-0.00439228443428874,0.03251687437295914,0.02943858876824379
1701816358336115500,1.038115478515625,0.004660423845052719,0.028262197971343994,0.01943807490170002
1701816358346068500,1.048068359375,0.02121090516448021,0.019668977707624435,0.014664890244603157
1701816358356021500,1.058021484375,0.03924162685871124,0.014730224385857582,0.01306143682450056
1701816358365974500,1.067974609375,0.05717216059565544,0.016500694677233696,0.013829225674271584
1701816358375926500,1.077926513671875,0.07259701192378998,0.023246638476848602,0.017211459577083588
1701816358385879600,1.087879638671875,0.08191461116075516,0.02665468491613865,0.012860652059316635
1701816358395832600,1.09783251953125,0.08812534064054489,0.030006932094693184,0.009370927698910236
1701816358405785600,1.10778564453125,0.09576887637376785,0.030876988545060158,0.0053154658526182175
1701816358415738400,1.11773828125,0.10398179292678833,0.029656440019607544,0.009326309897005558
1701816358425690400,1.1276904296875,0.10628489404916763,0.02739887684583664,0.013375379145145416
1701816358435643400,1.137643310546875,0.11029430478811264,0.024534422904253006,0.010758846066892147
1701816358445596400,1.147596435546875,0.10985035449266434,0.023609239608049393,0.007980636321008205
1701816358455549400,1.157549560546875,0.10734616219997406,0.023878443986177444,0.006109477952122688
1701816358465502500,1.16750244140625,0.10767000168561935,0.026400990784168243,0.0010563959367573261
1701816358475455500,1.17745556640625,0.10977192968130112,0.029404859989881516,-0.00860518403351307
1701816358485407200,1.1874072265625,0.11330754309892654,0.03178705647587776,-0.01345187146216631
1701816358495361000,1.197361083984375,0.12025490403175354,0.0340895876288414,-0.015917707234621048
1701816358505314000,1.20731396484375,0.12936291098594666,0.03047967329621315,-0.016920387744903564
1701816358515267000,1.21726708984375,0.13871540129184723,0.02885076217353344,-0.021054726094007492
1701816358525220000,1.22722021484375,0.14266939461231232,0.03107583336532116,-0.02380603551864624
1701816358535173000,1.237173095703125,0.14240655303001404,0.03204071521759033,-0.027877863496541977
1701816358545125000,1.247125,0.13891753554344177,0.03733481466770172,-0.0358247384428978
1701816358555078100,1.257078125,0.13273146748542786,0.03864265978336334,-0.04685793071985245
1701816358565031200,1.26703125,0.12566637992858887,0.0337672084569931,-0.057903390377759933
1701816358574984200,1.276984130859375,0.11429906636476517,0.02694610506296158,-0.06272921711206436
1701816358584937200,1.286937255859375,0.10561556369066238,0.019724944606423378,-0.06103811413049698
1701816358594889200,1.29688916015625,0.0952400416135788,0.01154325157403946,-0.046135369688272476
1701816358604842200,1.30684228515625,0.08081955462694168,0.009210055693984032,-0.024634340777993202
1701816358614795000,1.316794921875,0.06627152860164642,0.01141795702278614,-0.015020407736301422
1701816358624748000,1.326748046875,0.05303668603301048,0.014881130307912827,-0.006716405972838402
1701816358634701000,1.336701171875,0.055846646428108215,-0.0000631827861070633,0.006772879511117935
1701816358644654000,1.346654052734375,0.049109384417533875,-0.032511670142412186,0.014256361871957779
1701816358654606000,1.356606201171875,0.03865055739879608,-0.09072945266962051,-0.0001274794340133667
1701816358664559000,1.36655908203125,0.03185177221894264,-0.13567695021629333,-0.037840768694877625
1701816358674512100,1.37651220703125,0.02989906817674637,-0.17510534822940826,-0.07521369308233261
1701816358684465200,1.386465087890625,0.0333515927195549,-0.20301315188407898,-0.09290986508131027
1701816358694418200,1.396418212890625,0.038418859243392944,-0.20932702720165253,-0.09501181542873383
1701816358704371000,1.406370849609375,0.03822551667690277,-0.2012544572353363,-0.080851249396801
1701816358714323000,1.416322998046875,0.03344579413533211,-0.1820160299539566,-0.046174027025699615
1701816358724276000,1.42627587890625,0.025028342381119728,-0.15932030975818634,-0.0013325195759534836
1701816358734229000,1.43622900390625,0.006165437866002321,-0.14892040193080902,0.04853250831365585
1701816358744182000,1.44618212890625,-0.005702407099306583,-0.15617884695529938,0.0923425704240799
1701816358754135000,1.456135009765625,-0.024005617946386337,-0.17507892847061157,0.11572735756635666
1701816358764087000,1.466087158203125,-0.04127595201134682,-0.20118136703968048,0.12693367898464203
1701816358774040000,1.4760400390625,-0.059639204293489456,-0.22959579527378082,0.12776224315166473
1701816358783993000,1.4859931640625,-0.07768957316875458,-0.26969051361083984,0.11557242274284363
1701816358793946000,1.495946044921875,-0.1034763902425766,-0.3082507848739624,0.09162001311779022
1701816358803899100,1.505899169921875,-0.11965668946504593,-0.32623881101608276,0.06995093822479248
1701816358813852200,1.51585205078125,-0.13889406621456146,-0.3311879634857178,0.06190253794193268
1701816358823804200,1.52580419921875,-0.16365747153759003,-0.3219446539878845,0.07629452645778656
1701816358833757200,1.535757080078125,-0.18611128628253937,-0.30492517352104187,0.10369107872247696
1701816358843710200,1.545710205078125,-0.21979840099811554,-0.30877426266670227,0.1388394683599472
1701816358853663000,1.5556630859375,-0.25645843148231506,-0.3031482994556427,0.15679414570331573
1701816358863616000,1.565615966796875,-0.2984418570995331,-0.29324427247047424,0.16855493187904358
1701816358873569000,1.575569091796875,-0.34155386686325073,-0.2696565091609955,0.16361680626869202
1701816358883521000,1.58552099609375,-0.37817659974098206,-0.22362269461154938,0.15677115321159363
1701816358893474000,1.59547412109375,-0.40421175956726074,-0.17910972237586975,0.13539299368858337
1701816358903427000,1.605427001953125,-0.3988340497016907,-0.13901077210903168,0.11174679547548294
1701816358913380000,1.615380126953125,-0.3690713942050934,-0.13504335284233093,0.06642413139343262
1701816358923333000,1.6253330078125,-0.32534095644950867,-0.10403402894735336,0.008648186922073364
1701816358933285000,1.63528515625,-0.2701967656612396,-0.06122813746333122,-0.03359120711684227
1701816358943238100,1.645238037109375,-0.2064497470855713,-0.03941551595926285,-0.047644708305597305
1701816358953191200,1.655191162109375,-0.15845392644405365,-0.020798388868570328,-0.05621131882071495
1701816358963144000,1.66514404296875,-0.12207488715648651,-0.014000136405229568,-0.09092056006193161
1701816358973097000,1.675096923828125,-0.0863550454378128,-0.010604907758533955,-0.13911737501621246
1701816358983050000,1.685050048828125,-0.04289252310991287,-0.0034756255336105824,-0.1556481420993805
1701816358993002200,1.695002197265625,-0.0024922487791627645,0.011317897588014603,-0.11279623955488205
1701816359002955000,1.704955078125,0.04040781408548355,0.029669206589460373,-0.030230790376663208
1701816359012908000,1.714907958984375,0.06070584058761597,0.03612133115530014,0.04881056398153305
1701816359022861000,1.724861083984375,0.061470165848731995,0.02896381914615631,0.10222611576318741
1701816359032814000,1.73481396484375,0.0535346083343029,0.005389569792896509,0.11524400115013123
1701816359042767000,1.74476708984375,0.05376630276441574,-0.020163195207715034,0.09388384968042374
1701816359052719000,1.754718994140625,0.05666724219918251,-0.03418393433094025,0.05287732928991318
1701816359062672100,1.764672119140625,0.054705288261175156,-0.04414521902799606,0.001433847239241004
1701816359072625200,1.774625244140625,0.0571039579808712,-0.0527908019721508,-0.05187763646245003
1701816359082578200,1.784578125,0.0529603436589241,-0.04159273952245712,-0.10638908296823502
1701816359092531000,1.794531005859375,0.053873881697654724,-0.04046379402279854,-0.16024993360042572
1701816359102483000,1.80448291015625,0.05101950839161873,-0.06526900827884674,-0.195830836892128
1701816359112436000,1.81443603515625,0.03812219575047493,-0.09273356199264526,-0.2501831352710724
1701816359122389000,1.824388916015625,0.023176802322268486,-0.09069384634494781,-0.31557226181030273
1701816359132342000,1.834342041015625,0.01300205197185278,-0.05285695195198059,-0.3540917634963989
1701816359142295000,1.844294921875,-0.0013949964195489883,0.014867233112454414,-0.3554435670375824
1701816359152248000,1.854248046875,-0.019306086003780365,0.0875033512711525,-0.33017498254776
1701816359162200000,1.864199951171875,-0.03858870640397072,0.1543167382478714,-0.3051271438598633
1701816359172153000,1.874153076171875,-0.058667562901973724,0.2087590992450714,-0.2897063195705414
1701816359182106000,1.884106201171875,-0.08030841499567032,0.24839013814926147,-0.2719624638557434
1701816359192059100,1.89405908203125,-0.09242657572031021,0.27021485567092896,-0.24959693849086761
1701816359202012200,1.90401220703125,-0.08725045621395111,0.27543944120407104,-0.2160584181547165
1701816359211964200,1.913964111328125,-0.07824356853961945,0.26336869597435,-0.17596855759620667
1701816359221917200,1.923917236328125,-0.06442336738109589,0.23323343694210052,-0.15061819553375244
1701816359231870200,1.9338701171875,-0.04468874633312225,0.1910915970802307,-0.1447993367910385
1701816359241823000,1.943822998046875,-0.023455899208784103,0.14734624326229095,-0.1349504292011261
1701816359251776000,1.95377587890625,-0.008155268616974354,0.10485526919364929,-0.11951617151498795
1701816359261729000,1.96372900390625,-0.004456936847418547,0.08358726650476456,-0.10695004463195801
1701816359271681000,1.973680908203125,-0.0029758927412331104,0.08730505406856537,-0.10447240620851517
1701816359281634000,1.983634033203125,0.0003266935236752033,0.11102955788373947,-0.09825525432825089
1701816359291587000,1.993587158203125,-0.0009093980770558119,0.1312667280435562,-0.08482231199741364
1701816359301540000,2.0035400390625,0.00032790657132864,0.1511741280555725,-0.056354984641075134
1701816359311493000,2.0134931640625,0.005980479530990124,0.1573256105184555,-0.022669944912195206
1701816359321446100,2.023446044921875,0.01140240952372551,0.15021683275699615,0.009898118674755096
1701816359331398000,2.03339794921875,0.013011151924729347,0.13133008778095245,0.042609043419361115
1701816359341351000,2.043350830078125,0.01428680494427681,0.10233199596405029,0.0724545493721962
1701816359351304000,2.053303955078125,0.01418544352054596,0.07862523943185806,0.08508289605379105
1701816359361257000,2.063257080078125,0.01190045103430748,0.05994902551174164,0.08262746781110764
1701816359371210000,2.0732099609375,0.015355190262198448,0.0466439314186573,0.07671456784009933
1701816359381163000,2.0831630859375,0.02222960814833641,0.043997280299663544,0.0788850411772728
1701816359391115300,2.093115234375,0.03387684002518654,0.04758740961551666,0.08438660949468613
1701816359401068000,2.103068115234375,0.049146074801683426,0.05402693897485733,0.08571845293045044
1701816359411021000,2.11302099609375,0.06360708922147751,0.06552928686141968,0.07889256626367569
1701816359420974000,2.12297412109375,0.07571035623550415,0.06677857786417007,0.06888040900230408
1701816359430927000,2.132927001953125,0.08267935365438461,0.0581708699464798,0.05937511846423149
1701816359440879000,2.142879150390625,0.08116881549358368,0.051052507013082504,0.04452373459935188
1701816359450832100,2.15283203125,0.07806709408760071,0.04380165413022041,0.025798138231039047
1701816359460785200,2.16278515625,0.06941848248243332,0.03969638794660568,0.006247607059776783
1701816359470738200,2.17273828125,0.06163182109594345,0.03556632995605469,-0.012765450403094292
1701816359480691000,2.18269091796875,0.05562133342027664,0.03444007784128189,-0.03259987384080887
1701816359490644200,2.192644287109375,0.054846275597810745,0.03942388668656349,-0.047877877950668335
1701816359500596200,2.20259619140625,0.05988764017820358,0.045158468186855316,-0.053106196224689484
1701816359510549200,2.21254931640625,0.063114695250988,0.056056566536426544,-0.060581520199775696
1701816359520502000,2.222501953125,0.057457078248262405,0.06471530348062515,-0.0738789513707161
1701816359530455000,2.232455078125,0.04666030779480934,0.06447279453277588,-0.08148553222417831
1701816359540408000,2.242407958984375,0.0339016355574131,0.05921917408704758,-0.07503615319728851
1701816359550360300,2.2523603515625,0.014781842939555645,0.05009179934859276,-0.06956389546394348
1701816359560313300,2.262313232421875,-0.00036089099012315273,0.03480419144034386,-0.0641651377081871
1701816359570266400,2.272266357421875,-0.010055050253868103,0.014818783849477768,-0.05884533002972603
1701816359580219400,2.282219482421875,-0.020779864862561226,-0.0005662981420755386,-0.056702546775341034
1701816359590172400,2.29217236328125,-0.03356647118926048,-0.004902482498437166,-0.057038284838199615
1701816359600125400,2.30212548828125,-0.04641009867191315,0.0005569974891841412,-0.05069143697619438
1701816359610077200,2.3120771484375,-0.05517083406448364,0.006650743540376425,-0.03738139569759369
1701816359620030200,2.3220302734375,-0.06060927361249924,0.012064151465892792,-0.02360246703028679
1701816359629983200,2.331983154296875,-0.06270555406808853,0.012700038030743599,-0.0076032583601772785
1701816359639936300,2.341936279296875,-0.06250555068254471,0.008704764768481255,0.01057787612080574
1701816359649889300,2.35188916015625,-0.06289859861135483,0.01003425382077694,0.015643224120140076
1701816359659842300,2.36184228515625,-0.05845591425895691,0.011977829039096832,0.007486761547625065
1701816359669794000,2.3717939453125,-0.04899203032255173,0.009580487385392189,-0.005903898738324642
1701816359679747000,2.3817470703125,-0.037240833044052124,0.0038871807046234608,-0.015327493660151958
1701816359689700000,2.3917001953125,-0.02465933747589588,-0.0028176289051771164,-0.009539891965687275
1701816359699653000,2.401653076171875,-0.01988508738577366,-0.011520839296281338,-0.001606601756066084
1701816359709606100,2.411606201171875,-0.022074175998568535,-0.010022670030593872,0.005369200371205807
1701816359719558100,2.42155810546875,-0.03154890239238739,-0.0014784508384764194,0.007754860445857048
1701816359729511200,2.43151123046875,-0.04026868939399719,0.0092502785846591,0.00793300848454237
1701816359739464200,2.441464111328125,-0.04067375510931015,0.01520643848925829,0.006924735382199287
1701816359749417200,2.451417236328125,-0.03784773871302605,0.015563949942588806,0.003002961166203022
1701816359759370000,2.461369873046875,-0.03287774696946144,0.011897310614585876,-0.006472832523286343
1701816359769323000,2.471322998046875,-0.02942972257733345,-0.0010090258438140154,-0.011842643842101097
1701816359779275300,2.481275146484375,-0.026513028889894485,-0.01926872320473194,-0.0020251679234206676
1701816359789228300,2.491228271484375,-0.024935994297266006,-0.03476794436573982,0.013078929856419563
1701816359799181300,2.501181396484375,-0.035637639462947845,-0.051406845450401306,0.027149740606546402
1701816359809134300,2.51113427734375,-0.05227077007293701,-0.07310499995946884,0.04054558649659157
1701816359819087400,2.52108740234375,-0.07443039864301682,-0.09397539496421814,0.05470374971628189
1701816359829040400,2.531040283203125,-0.09604188054800034,-0.11276422441005707,0.07336236536502838
1701816359838992100,2.5409921875,-0.11904732882976532,-0.1242925226688385,0.09315045177936554
1701816359848945200,2.550945068359375,-0.13622266054153442,-0.12262275069952011,0.10275782644748688
1701816359858898200,2.560898193359375,-0.14703135192394257,-0.11337519437074661,0.10457570105791092
1701816359868851200,2.570851318359375,-0.15380653738975525,-0.10497813671827316,0.10827241092920303
1701816359878804200,2.58080419921875,-0.1560518443584442,-0.10169605910778046,0.11337237060070038
1701816359888756200,2.590756103515625,-0.15969176590442657,-0.09691056609153748,0.11301910132169724
1701816359898709200,2.600709228515625,-0.16639147698879242,-0.08845556527376175,0.10803978890180588
1701816359908662000,2.610662109375,-0.18045736849308014,-0.06690574437379837,0.1034400463104248
1701816359918615000,2.620614990234375,-0.19274120032787323,-0.04444118216633797,0.09768016636371613
1701816359928568000,2.630568115234375,-0.20098638534545898,-0.014610091224312782,0.0958220511674881
1701816359938521000,2.64052099609375,-0.20844615995883942,0.0016141519881784916,0.09545879811048508
1701816359948473000,2.65047314453125,-0.21287895739078522,0.010662282817065716,0.08663923293352127
1701816359958426000,2.660426025390625,-0.21206669509410858,0.015044781379401684,0.07856745272874832
1701816359968379100,2.670379150390625,-0.2126045674085617,0.013971827924251556,0.08032964915037155
1701816359978332200,2.680332275390625,-0.21723048388957977,0.0076891640201210976,0.08923472464084625
1701816359988285200,2.69028515625,-0.22361962497234344,-0.00404747249558568,0.09569976478815079
1701816359998237200,2.7002373046875,-0.2219037413597107,0.00526480283588171,0.10490044951438904
1701816360008190200,2.710190185546875,-0.2218153029680252,0.024395329877734184,0.11637289077043533
1701816360018143200,2.720143310546875,-0.21225854754447937,0.053894899785518646,0.11554065346717834
1701816360028096300,2.73009619140625,-0.19467215240001678,0.08379615843296051,0.0994512289762497
1701816360038049300,2.74004931640625,-0.1748979091644287,0.09155607223510742,0.07709452509880066
1701816360048002300,2.750002197265625,-0.13737820088863373,0.08340737223625183,0.04716780036687851
1701816360057954300,2.759954345703125,-0.09715835005044937,0.0614304393529892,0.023187365382909775
1701816360067907000,2.769906982421875,-0.07540104538202286,0.030942337587475777,0.01769590750336647
1701816360077860000,2.779860107421875,-0.056426290422677994,0.010196847841143608,0.03050864115357399
1701816360087813000,2.789813232421875,-0.04553835839033127,-0.004390668123960495,0.05695002153515816
1701816360097766100,2.79976611328125,-0.04306774213910103,-0.0064522214233875275,0.0676540657877922
1701816360107719200,2.80971923828125,-0.041439127177000046,0.019043175503611565,0.06082707270979881
1701816360117672200,2.819672119140625,-0.03977705165743828,0.03542561084032059,0.05711781978607178
1701816360127625200,2.829625244140625,-0.036102939397096634,0.0354144461452961,0.049274154007434845
1701816360137578200,2.839578125,-0.025991715490818024,0.036003801971673965,0.029660239815711975
1701816360147531300,2.84953125,-0.014288321137428284,0.04270516708493233,0.0004949814174324274
1701816360157483000,2.85948291015625,0.005193235818296671,0.054296307265758514,-0.01745312660932541
1701816360167436000,2.86943603515625,0.016201822087168694,0.05002962797880173,-0.0206627044826746
1701816360177389000,2.87938916015625,0.035601355135440826,0.030802136287093163,-0.02531125210225582
1701816360187342000,2.889342041015625,0.048351675271987915,0.02070966362953186,-0.03284188359975815
1701816360197295000,2.899295166015625,0.04857458174228668,-0.007272168528288603,-0.044741421937942505
1701816360207247400,2.909247314453125,0.04921392723917961,-0.03970516473054886,-0.08218330889940262
1701816360217200400,2.919200439453125,0.0507657490670681,-0.04549514129757881,-0.13100597262382507
1701816360227153400,2.9291533203125,0.04627816379070282,-0.05715242028236389,-0.15942654013633728
1701816360237106200,2.939106201171875,0.04205092787742615,-0.07337772846221924,-0.15799561142921448
1701816360247059200,2.94905908203125,0.044228311628103256,-0.08252740651369095,-0.1382848024368286
1701816360257012200,2.95901220703125,0.046367097645998,-0.08155561983585358,-0.11432220786809921
1701816360266964200,2.968964111328125,0.0442129410803318,-0.07527025789022446,-0.09655841439962387
1701816360276917200,2.978917236328125,0.041866693645715714,-0.06932421773672104,-0.08580803126096725
1701816360286870300,2.988870361328125,0.03731711208820343,-0.06073373556137085,-0.07993415743112564
1701816360296823300,2.9988232421875,0.03334873542189598,-0.054317913949489594,-0.07588056474924088
1701816360306776300,3.0087763671875,0.04253899306058884,-0.05141612887382507,-0.07276009768247604
1701816360316729300,3.018729248046875,0.06139497086405754,-0.06968408823013306,-0.076126329600811
1701816360326681000,3.02868115234375,0.07648184150457382,-0.09502457827329636,-0.0828712210059166
1701816360336634000,3.038634033203125,0.08590623736381531,-0.13663193583488464,-0.09390895813703537
1701816360346587100,3.048587158203125,0.09150941669940948,-0.1719067543745041,-0.12496557086706161
1701816360356540200,3.0585400390625,0.092263363301754,-0.15966925024986267,-0.16960680484771729
1701816360366493200,3.0684931640625,0.08820654451847076,-0.117094486951828,-0.1954648196697235
1701816360376445200,3.078445068359375,0.0829036682844162,-0.05834941938519478,-0.17774812877178192
1701816360386398200,3.088398193359375,0.07738853245973587,-0.006960161495953798,-0.1286323517560959
1701816360396351000,3.09835107421875,0.06524744629859924,0.034825898706912994,-0.05488783121109009
1701816360406304000,3.108303955078125,0.04321747645735741,0.055490389466285706,0.013449671678245068
1701816360416257000,3.118257080078125,0.028783677145838737,0.051223739981651306,0.07315561175346375
1701816360426210000,3.1282099609375,0.010096795856952667,0.03981943428516388,0.11344040185213089
1701816360436162300,3.138162353515625,-0.00467655761167407,0.016703994944691658,0.12335535138845444
1701816360446114300,3.1481142578125,-0.021062174811959267,-0.005716871470212936,0.09391744434833527
1701816360456067000,3.158067138671875,-0.030029037967324257,-0.026293786242604256,0.03868880495429039
1701816360466020000,3.16802001953125,-0.02721342444419861,-0.04307166859507561,-0.025079039856791496
1701816360475973000,3.17797314453125,-0.02252226695418358,-0.05734141916036606,-0.06832744926214218
1701816360485926100,3.187926025390625,-0.006210568360984325,-0.05609791353344917,-0.07634809613227844
1701816360495878700,3.197878662109375,0.011045649647712708,-0.049972642213106155,-0.034710634499788284
1701816360505830700,3.20783056640625,0.03010564297437668,-0.040231212973594666,0.0458790622651577
1701816360515783700,3.21778369140625,0.052890848368406296,-0.08329452574253082,0.14617770910263062
1701816360525736700,3.22773681640625,0.06589244306087494,-0.15711265802383423,0.21811001002788544
1701816360535689500,3.237689453125,0.06887704879045486,-0.19777460396289825,0.18974441289901733
1701816360545642500,3.247642578125,0.03153508901596069,-0.1555720716714859,0.09910900890827179
1701816360555594800,3.2575947265625,-0.018145646899938583,-0.10905890166759491,0.03978816419839859
1701816360565547800,3.2675478515625,-0.04353110119700432,-0.07254018634557724,0.012787174433469772
1701816360575500800,3.277500732421875,-0.05102603882551193,-0.042063236236572266,0.0053265951573848724
1701816360585453800,3.287453857421875,-0.046744074672460556,-0.00872280728071928,0.0211810152977705
1701816360595406800,3.29740673828125,-0.01957770064473152,-0.010882897302508354,0.06335190683603287
1701816360605359900,3.30735986328125,-0.007518792524933815,-0.0133921317756176,0.11733628064393997
1701816360615311600,3.3173115234375,0.002746095648035407,-0.005465233698487282,0.13496321439743042
1701816360625264600,3.3272646484375,0.005155432038009167,-0.00918454397469759,0.1288205087184906
1701816360635217700,3.3372177734375,-0.005494016222655773,-0.018162060528993607,0.10822362452745438
1701816360645170700,3.347170654296875,-0.017087260261178017,-0.02089645341038704,0.07802516222000122
1701816360655123700,3.357123779296875,-0.03647054359316826,-0.0108201177790761,0.055798955261707306
1701816360665076700,3.36707666015625,-0.04889921844005585,-0.01231597363948822,0.03299032151699066
1701816360675028700,3.37702880859375,-0.06749767065048218,0.0032102554105222225,0.009840525686740875
1701816360684981500,3.3869814453125,-0.07885488867759705,0.015362069010734558,0.012531916610896587
1701816360694934500,3.3969345703125,-0.07566601783037186,0.0010907207615673542,0.03356742858886719
1701816360704887600,3.406887451171875,-0.07673447579145432,-0.011910464614629745,0.042024195194244385
1701816360714840600,3.416840576171875,-0.0808384120464325,-0.004695961717516184,0.03898286446928978
1701816360724792800,3.426792724609375,-0.09613440930843353,0.011558858677744865,0.04526810348033905
1701816360734745900,3.436745849609375,-0.10135899484157562,0.04059583321213722,0.062281977385282516
1701816360744699000,3.446698974609375,-0.10023288428783417,0.06199455261230469,0.0823432207107544
1701816360754652000,3.45665185546875,-0.09134058654308319,0.06239056587219238,0.10635001957416534
1701816360764605000,3.46660498046875,-0.07099508494138718,0.026607919484376907,0.1302569955587387
1701816360774557700,3.4765576171875,-0.04827139526605606,-0.020711924880743027,0.14264921844005585
1701816360784509700,3.486509765625,-0.06922999769449234,-0.044011302292346954,0.1305617243051529
1701816360794462700,3.496462646484375,-0.07694145292043686,-0.03714780509471893,0.09531664848327637
1701816360804415700,3.506415771484375,-0.07407557964324951,0.015332607552409172,0.08287202566862106
1701816360814368800,3.51636865234375,-0.06914633512496948,0.047717709094285965,0.07330115139484406
1701816360824321800,3.52632177734375,-0.036221910268068314,0.028877317905426025,0.05990138649940491
1701816360834274800,3.53627490234375,-0.0010735089890658855,-0.02411665767431259,0.03347963094711304
1701816360844226600,3.5462265625,0.02597951702773571,-0.08660249412059784,0.0021434484515339136
1701816360854179600,3.5561796875,0.04206234589219093,-0.11063326150178909,-0.023094262927770615
1701816360864132600,3.566132568359375,0.0437115877866745,-0.09208676218986511,-0.037680238485336304
1701816360874085600,3.576085693359375,0.019620096310973167,-0.0638870820403099,-0.04036150872707367
1701816360884038700,3.58603857421875,-0.006255132146179676,-0.017455769702792168,-0.03323163837194443
1701816360893991700,3.59599169921875,-0.04567630589008331,0.026498371735215187,0.014079686254262924
1701816360903943700,3.605943603515625,-0.07710133492946625,0.04011564701795578,0.06944067776203156
1701816360913896700,3.615896728515625,-0.08782190084457397,0.05161438137292862,0.09057366102933884
1701816360923849500,3.625849365234375,-0.07820901274681091,0.0460510179400444,0.08577454090118408
1701816360933802500,3.635802490234375,-0.05558013170957565,0.029080290347337723,0.06537232547998428
1701816360943755500,3.645755615234375,-0.02757992036640644,0.006985110230743885,0.02986466884613037
1701816360953707800,3.655707763671875,0.0025830415543168783,-0.019115732982754707,-0.017399515956640244
1701816360963660800,3.665660888671875,0.017157498747110367,-0.03224725276231766,-0.05517808347940445
1701816360973613800,3.67561376953125,0.01579582691192627,-0.02439012937247753,-0.07365430146455765
1701816360983566800,3.68556689453125,0.012042723596096039,0.0021267561241984367,-0.059548214077949524
1701816360993519900,3.695519775390625,-0.0039823162369430065,0.03148757293820381,-0.021039173007011414
1701816361003473000,3.705472900390625,-0.02355945110321045,0.05423031374812126,0.02800286002457142
1701816361013424600,3.715424560546875,-0.036717064678668976,0.06770563870668411,0.06819714605808258
1701816361023377700,3.725377685546875,-0.036736179143190384,0.06637290865182877,0.08381492644548416
1701816361033330700,3.73533056640625,-0.02833710052073002,0.05815199390053749,0.07969661056995392
1701816361043283700,3.74528369140625,-0.015108175575733185,0.031914353370666504,0.06564557552337646
1701816361053236700,3.75523681640625,0.00043030455708503723,0.012747315689921379,0.03005376085639
1701816361063189800,3.765189697265625,0.019884949550032616,0.0019696494564414024,-0.006983933970332146
1701816361073141800,3.775141845703125,0.036187756806612015,-0.008530661463737488,-0.045068468898534775
1701816361083094500,3.785094482421875,0.04796214774250984,-0.011664897203445435,-0.06743500381708145
1701816361093047600,3.795047607421875,0.052497513592243195,-0.0031379875726997852,-0.07104171812534332
1701816361103000600,3.80500048828125,0.0693366527557373,-0.02605106681585312,-0.051682960242033005
1701816361112953600,3.81495361328125,0.08962062001228333,-0.04415630176663399,-0.025227118283510208
1701816361122906600,3.82490673828125,0.10437328368425369,-0.041714660823345184,0.0021971706300973892
1701816361132859000,3.83485888671875,0.09279945492744446,-0.014802884310483932,0.023485947400331497
1701816361142811600,3.844811767578125,0.06459593772888184,0.012679962441325188,0.029383089393377304
1701816361152764700,3.8547646484375,0.04247652739286423,0.03057720512151718,0.031861159950494766
1701816361162717700,3.8647177734375,0.030730657279491425,0.03593691810965538,0.032331373542547226
1701816361172670700,3.874670654296875,0.022001082077622414,0.036868490278720856,0.02923331782221794
1701816361182622700,3.884622802734375,0.018727745860815048,0.03349649906158447,0.024064596742391586
1701816361192575700,3.89457568359375,0.013999036513268948,0.03711573779582977,0.013813557103276253
1701816361202528800,3.90452880859375,0.007536447606980801,0.04912560433149338,0.010093381628394127
1701816361212481800,3.914481689453125,-0.004295178689062595,0.06415488570928574,0.03395850211381912
1701816361222434800,3.924434814453125,-0.028427012264728546,0.09353519231081009,0.10089128464460373
1701816361232387800,3.934387939453125,-0.06292187422513962,0.12275725603103638,0.20997461676597595
1701816361242339600,3.944339599609375,-0.10261236131191254,0.15561504662036896,0.3418407738208771
1701816361252292600,3.954292724609375,-0.1319020837545395,0.18898126482963562,0.4658820331096649
1701816361262245600,3.96424560546875,-0.1527475267648697,0.21802936494350433,0.5464183688163757
1701816361272198700,3.97419873046875,-0.16387155652046204,0.22317565977573395,0.5482295751571655
1701816361282151700,3.984151611328125,-0.1536601483821869,0.18743807077407837,0.461699903011322
1701816361292104700,3.994104736328125,-0.13048557937145233,0.1326507329940796,0.3145165741443634
1701816361302056700,4.004056640625,-0.10084448754787445,0.05299762636423111,0.1603844314813614
1701816361312009700,4.014009765625,-0.07031187415122986,-0.03787289559841156,0.038513921201229095
1701816361321962500,4.02396240234375,-0.04709577187895775,-0.10896678268909454,-0.034246303141117096
1701816361331915500,4.03391552734375,-0.03934464231133461,-0.12500299513339996,-0.05250146985054016
1701816361341868500,4.04386865234375,-0.039954446256160736,-0.11938078701496124,-0.003022759687155485
1701816361351821600,4.053821533203125,-0.038810618221759796,-0.13527800142765045,0.09774007648229599
1701816361361773800,4.06377392578125,-0.0414615124464035,-0.15946026146411896,0.19701938331127167
1701816361371726800,4.073726806640625,-0.05794541537761688,-0.16333064436912537,0.2534880042076111
1701816361381679900,4.083679931640625,-0.08522836863994598,-0.14954885840415955,0.25405266880989075
1701816361391633000,4.0936328125,-0.11750641465187073,-0.13315017521381378,0.21799345314502716
1701816361401586000,4.1035859375,-0.14647002518177032,-0.12196576595306396,0.15787051618099213
1701816361411537700,4.11353759765625,-0.16748183965682983,-0.11226360499858856,0.09259296953678131
1701816361421490700,4.12349072265625,-0.16842250525951385,-0.10651949793100357,0.03948857635259628
1701816361431443700,4.133443603515625,-0.15570218861103058,-0.09012933820486069,0.009832417592406273
1701816361441396700,4.143396728515625,-0.1397385597229004,-0.06729025393724442,-0.0007363422773778439
1701816361451349800,4.153349853515625,-0.12445468455553055,-0.049481164664030075,0.0053471168503165245
1701816361461302800,4.163302734375,-0.1078491359949112,-0.03950318321585655,0.018912173807621002
1701816361471254500,4.173254638671875,-0.09513361752033234,-0.031389061361551285,0.03408527001738548
1701816361481207600,4.18320751953125,-0.09172751009464264,-0.03608580306172371,0.050860047340393066
1701816361491161000,4.1931611328125,-0.08945237845182419,-0.04922077804803848,0.05520978942513466
1701816361501114000,4.203114013671875,-0.08944666385650635,-0.07180116325616837,0.04882001131772995
1701816361511067100,4.213067138671875,-0.09451359510421753,-0.0849638357758522,0.024364203214645386
1701816361521020200,4.223020263671875,-0.09230511635541916,-0.08581797033548355,-0.017934635281562805
1701816361530972000,4.232971923828125,-0.07837891578674316,-0.07189948856830597,-0.05708390101790428
1701816361540925000,4.242925048828125,-0.052907541394233704,-0.07419399172067642,-0.07683897018432617
1701816361550878000,4.2528779296875,-0.0030494402162730694,-0.0850817933678627,-0.08054449409246445
1701816361560831000,4.2628310546875,0.06630179286003113,-0.09156718850135803,-0.06375109404325485
1701816361570784000,4.272783935546875,0.14522403478622437,-0.07325795292854309,-0.02961043454706669
1701816361580737000,4.282737060546875,0.2231813669204712,-0.03992199897766113,0.04087458923459053
1701816361590689300,4.292689208984375,0.27869975566864014,-0.027136163786053658,0.17362678050994873
1701816361600642000,4.30264208984375,0.3024376630783081,-0.060196079313755035,0.335944801568985
1701816361610595000,4.312594970703125,0.2915176451206207,-0.11440019309520721,0.48826298117637634
1701816361620548000,4.322548095703125,0.23480352759361267,-0.18033288419246674,0.5854701995849609
1701816361630501000,4.332501220703125,0.1244080439209938,-0.2373064160346985,0.5880183577537537
1701816361640453000,4.342453125,-0.011269568465650082,-0.2920778691768646,0.4858628511428833
1701816361650406100,4.35240625,-0.12293484807014465,-0.35022053122520447,0.3226257264614105
1701816361660359200,4.362359130859375,-0.1832546442747116,-0.3905479907989502,0.16677486896514893
1701816361670312200,4.372312255859375,-0.19879844784736633,-0.39406174421310425,0.06315740197896957
1701816361680265200,4.38226513671875,-0.17274311184883118,-0.34105655550956726,0.02399936318397522
1701816361690218000,4.392218017578125,-0.12630131840705872,-0.23844708502292633,0.03815220296382904
1701816361700170000,4.402169921875,-0.07333309203386307,-0.13772405683994293,0.08404780924320221
1701816361710123000,4.412123046875,-0.017162226140499115,-0.05244697257876396,0.13785246014595032
1701816361720076000,4.422075927734375,0.030656445771455765,-0.028648145496845245,0.18229275941848755
1701816361730029000,4.432029052734375,0.04674380272626877,-0.05973789095878601,0.19798889756202698
1701816361739982000,4.441982177734375,0.034819334745407104,-0.10529055446386337,0.17299556732177734
1701816361749935000,4.45193505859375,0.005027350038290024,-0.1486705094575882,0.11352717876434326
1701816361759887000,4.46188720703125,-0.031232906505465508,-0.16709254682064056,0.0466185063123703
1701816361769840000,4.471840087890625,-0.06122329458594322,-0.1726771891117096,0.002464891877025366
1701816361779793200,4.481793212890625,-0.08055528998374939,-0.1535881906747818,-0.012649153359234333
1701816361789746000,4.491745849609375,-0.08271058648824692,-0.11405330151319504,-0.009911689907312393
1701816361799699000,4.501698974609375,-0.0646931529045105,-0.06425987929105759,-0.008911959826946259
1701816361809652000,4.51165185546875,-0.03798618167638779,-0.024160929024219513,-0.010493611916899681
1701816361819604200,4.521604248046875,0.0034275155048817396,0.0030201757326722145,-0.019093958660960197
1701816361829557200,4.53155712890625,0.035291969776153564,0.018158115446567535,-0.03264598548412323
1701816361839510000,4.541510009765625,0.048618752509355545,0.024626050144433975,-0.05658493936061859
1701816361849463000,4.551463134765625,0.049642205238342285,0.034550055861473083,-0.08314543962478638
1701816361859416000,4.561416015625,0.04758584499359131,0.04753434658050537,-0.09587660431861877
1701816361869368000,4.5713681640625,0.03284498304128647,0.05137888714671135,-0.08846209943294525
1701816361879321000,4.581321044921875,0.012761923484504223,0.055769182741642,-0.06955204904079437
1701816361889274000,4.591274169921875,-0.007117509376257658,0.05860145017504692,-0.04941003769636154
1701816361899227100,4.60122705078125,-0.026719585061073303,0.06341621279716492,-0.03153602406382561
1701816361909180200,4.61118017578125,-0.03952859342098236,0.06206092983484268,-0.029065676033496857
1701816361919133200,4.62113330078125,-0.0351996086537838,0.052865054458379745,-0.043391209095716476
1701816361929085000,4.6310849609375,-0.01763792522251606,0.04830678924918175,-0.06316971033811569
1701816361939038000,4.641037841796875,-0.003389734076336026,0.046106770634651184,-0.07567550241947174
1701816361948991000,4.650990966796875,0.006615229416638613,0.048688970506191254,-0.08474436402320862
1701816361958944000,4.660944091796875,0.0161720123142004,0.052717145532369614,-0.08458758890628815
1701816361968897000,4.67089697265625,0.026064855977892876,0.05318692699074745,-0.07471178472042084
1701816361978850000,4.68085009765625,0.03722721338272095,0.043751060962677,-0.055676985532045364
1701816361988802000,4.690802001953125,0.035767536610364914,0.026176592335104942,-0.03736668825149536
1701816361998755000,4.700755126953125,0.025004206225275993,0.00771350460126996,-0.027080761268734932
1701816362008708000,4.7107080078125,0.012644478119909763,-0.009749108925461769,-0.03115166909992695
1701816362018661000,4.7206611328125,0.005076130852103233,-0.019276145845651627,-0.04462937265634537
1701816362028614100,4.7306142578125,-0.0026094859931617975,-0.021556876599788666,-0.055022891610860825
1701816362038567200,4.740567138671875,-0.007870192639529705,-0.016383077949285507,-0.057017598301172256
1701816362048519200,4.750519287109375,-0.0020943288691341877,-0.009049264714121819,-0.053403157740831375
1701816362058472200,4.76047216796875,0.0046898378059268,-0.0034386427141726017,-0.0450718067586422
1701816362068425200,4.77042529296875,0.010309640318155289,-0.003058609552681446,-0.03827302157878876
1701816362078378000,4.7803779296875,0.019756434485316277,-0.008079759776592255,-0.03456447646021843
1701816362088331000,4.7903310546875,0.024670498445630074,-0.011526422575116158,-0.04184103384613991
1701816362098283000,4.800282958984375,0.021960318088531494,-0.009626859799027443,-0.052264872938394547
1701816362108236000,4.810236083984375,0.009205641224980354,-0.007000184617936611,-0.05817868933081627
1701816362118189000,4.82018896484375,-0.0021560455206781626,-0.0025794135872274637,-0.060879647731781006
1701816362128142000,4.83014208984375,-0.0033129225485026836,-0.007923578843474388,-0.052343688905239105
1701816362138095000,4.84009521484375,-0.003724419279024005,-0.0211020577698946,-0.028565533459186554
1701816362148048100,4.850048095703125,-0.010913622565567493,-0.030516065657138824,-0.0033928044140338898
1701816362157999900,4.859999755859375,-0.018567930907011032,-0.034561071544885635,0.0037995537277311087
1701816362167953000,4.869952880859375,-0.025449804961681366,-0.02430284209549427,-0.0010543237440288067
1701816362177906000,4.879906005859375,-0.026980916038155556,-0.010073220357298851,-0.009450407698750496
1701816362187859000,4.88985888671875,-0.027224063873291016,0.0011432147584855556,-0.014075519517064095
1701816362197812000,4.89981201171875,-0.01828375644981861,0.011690434068441391,-0.010171610862016678
1701816362207765000,4.909764892578125,-0.012612288817763329,0.020794982090592384,-0.004081760998815298
1701816362217717200,4.91971728515625,-0.00825642328709364,0.029400452971458435,0.0038853518199175596
1701816362227670300,4.929670166015625,-0.006216974463313818,0.027057938277721405,0.01983422413468361
1701816362237623000,4.939623046875,-0.003826816799119115,0.014078616164624691,0.0296187587082386
1701816362247576000,4.949576171875,-0.005533902905881405,0.0010360507294535637,0.026507919654250145
1701816362257529000,4.959529052734375,-0.014164116233587265,-0.006466034334152937,0.02117762342095375
1701816362267482000,4.969482177734375,-0.027025852352380753,-0.01350769866257906,0.020539263263344765
1701816362277434000,4.97943408203125,-0.03615006431937218,-0.011766262352466583,0.023919574916362762
1701816362287387100,4.98938720703125,-0.03261098638176918,-0.008136373944580555,0.028755873441696167
1701816362297340200,4.999340087890625,-0.02470088191330433,-0.013694245368242264,0.0355365052819252
1701816362307293200,5.009293212890625,-0.01653376594185829,-0.01289050281047821,0.03631068393588066
1701816362317246000,5.019245849609375,-0.0060975621454417706,-0.008826483972370625,0.02657255157828331
1701816362327198000,5.029197998046875,-0.0037747530732303858,-0.0015123782213777304,0.016903679817914963
1701816362337151000,5.03915087890625,-0.0037306807935237885,0.0025312486104667187,0.011721163988113403
1701816362347104000,5.04910400390625,-0.005130171775817871,0.002114729955792427,0.009924329817295074
1701816362357057000,5.05905712890625,-0.006862199865281582,0.008859407156705856,0.01065051555633545
1701816362367010000,5.069010009765625,-0.01226016040891409,0.01303817331790924,0.01119992509484291
1701816362376963000,5.078963134765625,-0.01837901398539543,0.019438588991761208,0.010863060131669044
1701816362386915000,5.0889150390625,-0.024042226374149323,0.02594415843486786,0.009490201249718666
1701816362396868000,5.0988681640625,-0.02424219809472561,0.02486678585410118,0.006920698564499617
1701816362406821000,5.108821044921875,-0.017908934503793716,0.019816100597381592,0.008559075184166431
1701816362416774100,5.118774169921875,-0.014746739529073238,0.016373638063669205,0.009706469252705574
1701816362426727200,5.12872705078125,-0.009763965383172035,0.012918984517455101,0.009368248283863068
1701816362436680200,5.13868017578125,-0.004853214602917433,0.0140237333253026,0.004869064316153526
1701816362446632200,5.148632080078125,0.0020672755781561136,0.01378058735281229,0.0008439626544713974
1701816362456585200,5.158585205078125,0.006129809655249119,0.01542292907834053,0.00521160289645195
1701816362466538200,5.168538330078125,0.006380412727594376,0.01681309938430786,0.009111802093684673
1701816362476491000,5.178490966796875,0.002786193508654833,0.011263683438301086,0.01877671480178833
1701816362486444000,5.188444091796875,-0.0017848560819402337,0.0009316839277744293,0.02659415826201439
1701816362496397000,5.19839697265625,-0.0086540337651968,-0.006825992837548256,0.022957846522331238
1701816362506349000,5.20834912109375,-0.010226896032691002,-0.009622311219573021,0.01677878014743328
1701816362516302000,5.218302001953125,-0.008569907397031784,-0.008080482482910156,0.008050083182752132
1701816362526254800,5.2282548828125,-0.008358186110854149,-0.007555040530860424,0.00019801920279860497
1701816362536208000,5.238207763671875,-0.007678295485675335,-0.004501480609178543,0.0017459753435105085
1701816362546161000,5.248160888671875,-0.009893246926367283,0.002469077240675688,0.007336483336985111
1701816362556113000,5.25811279296875,-0.014207863248884678,0.011160962283611298,0.016413681209087372
1701816362566066000,5.26806591796875,-0.01871313340961933,0.016367973759770393,0.025023147463798523
1701816362576019000,5.27801904296875,-0.015296400524675846,0.01657312735915184,0.02693699486553669
1701816362585972000,5.287971923828125,-0.008138888515532017,0.007272037677466869,0.023007500916719437
1701816362595925000,5.297925048828125,-0.0018615997396409512,-0.006369467359036207,0.01395386178046465
1701816362605877800,5.307877685546875,-0.0027878470718860626,-0.007791595533490181,0.004917223937809467
1701816362615830000,5.317830078125,-0.005755123682320118,-0.005001014098525047,-0.013414607383310795
1701816362625783000,5.327782958984375,-0.004195043817162514,-0.000018772203475236893,-0.021443240344524384
1701816362635736000,5.337736083984375,-0.003930073697119951,0.004947203677147627,-0.020556814968585968
1701816362645689000,5.347689208984375,-0.0010621154215186834,0.007043644320219755,-0.015950076282024384
1701816362655642000,5.35764208984375,0.004490130580961704,0.01805160939693451,-0.01445778738707304
1701816362665595100,5.36759521484375,0.007424402050673962,0.02978496626019478,-0.015406140126287937
1701816362675547000,5.377546875,0.013041866943240166,0.03694355487823486,-0.020624764263629913
1701816362685500000,5.3875,0.01709599792957306,0.03444124758243561,-0.028394805267453194
1701816362695453000,5.397452880859375,0.028482887893915176,0.020827190950512886,-0.031666357070207596
1701816362705406000,5.407406005859375,0.04336250200867653,-0.0019172700121998787,-0.02357167750597
1701816362715359000,5.41735888671875,0.07102590799331665,-0.04007392004132271,-0.013739696703851223
1701816362725312000,5.42731201171875,0.10678017884492874,-0.08818233013153076,-0.005948353558778763
1701816362735264000,5.437263916015625,0.13993725180625916,-0.1352902352809906,0.008799310773611069
1701816362745217000,5.447217041015625,0.1612960696220398,-0.17403577268123627,0.017743803560733795
1701816362755170000,5.457170166015625,0.16914305090904236,-0.20236742496490479,0.013068705797195435
1701816362765122800,5.467122802734375,0.1560320407152176,-0.2199924886226654,0.0014341541100293398
1701816362775075800,5.477075927734375,0.1369602233171463,-0.2327737957239151,-0.01558881625533104
1701816362785028000,5.487028076171875,0.11303544044494629,-0.23454400897026062,-0.02492239698767662
1701816362794981000,5.496981201171875,0.08573299646377563,-0.2644047737121582,-0.027700025588274002
1701816362804934100,5.50693408203125,0.05445896461606026,-0.33870378136634827,-0.06401675939559937
1701816362814887200,5.51688720703125,0.023528655990958214,-0.45964205265045166,-0.1470634639263153
1701816362824840200,5.526840087890625,0.0031362983863800764,-0.6052402257919312,-0.2394580990076065
1701816362834793200,5.536793212890625,-0.005810517352074385,-0.7562329769134521,-0.2985145151615143
1701816362844745000,5.546744873046875,-0.007685915566980839,-0.8926754593849182,-0.3134380578994751
1701816362854698000,5.556697998046875,-0.003977493848651648,-0.9773969054222107,-0.301813542842865
1701816362864651000,5.566651123046875,-0.0014208590146154165,-0.975655198097229,-0.2833282947540283
1701816362874604000,5.57660400390625,0.0011990710627287626,-0.8987287878990173,-0.24858348071575165
1701816362884557000,5.58655712890625,0.014110341668128967,-0.765533447265625,-0.18495896458625793
1701816362894510000,5.596510009765625,0.03542284667491913,-0.6042858958244324,-0.09058370441198349
1701816362904462000,5.606462158203125,0.06075190380215645,-0.41364139318466187,0.01548839546740055
1701816362914414800,5.616414794921875,0.07412748783826828,-0.23022547364234924,0.12789423763751984
1701816362924368000,5.626367919921875,0.08600971102714539,-0.09594755619764328,0.21967847645282745
1701816362934321000,5.63632080078125,0.09483999013900757,-0.02970581315457821,0.2580350935459137
1701816362944274000,5.64627392578125,0.08752801269292831,-0.0192374587059021,0.22702926397323608
1701816362954226000,5.656225830078125,0.07472770661115646,-0.044790010899305344,0.14133448898792267
1701816362964179000,5.666178955078125,0.06691744923591614,-0.08533104509115219,0.04081559553742409
1701816362974132000,5.676132080078125,0.06801282614469528,-0.13093073666095734,-0.0379086397588253
1701816362984085000,5.6860849609375,0.08094886690378189,-0.17285795509815216,-0.0796251967549324
1701816362994038000,5.6960380859375,0.09034937620162964,-0.1819867640733719,-0.09134047478437424
1701816363003990800,5.70599072265625,0.08622041344642639,-0.1460452824831009,-0.08662960678339005
1701816363013943000,5.715943115234375,0.07496151328086853,-0.07202254980802536,-0.08068851381540298
1701816363023896000,5.72589599609375,0.05525066331028938,0.02611812949180603,-0.07272858917713165
1701816363033849000,5.73584912109375,0.028769342228770256,0.11235906183719635,-0.05188417434692383
1701816363043802000,5.745802001953125,0.0007824478670954704,0.16856640577316284,-0.016900889575481415
1701816363053755100,5.755755126953125,-0.02552982047200203,0.21649305522441864,0.016423694789409637
1701816363063707000,5.765706787109375,-0.04384278133511543,0.2496882826089859,0.041212134063243866
1701816363073660000,5.775659912109375,-0.05350352078676224,0.2827407717704773,0.05132022500038147
1701816363083613000,5.785613037109375,-0.05266143009066582,0.31078678369522095,0.05627663433551788
1701816363093566000,5.79556591796875,-0.0341070182621479,0.3244979977607727,0.052364710718393326
1701816363103519000,5.80551904296875,-0.015717359259724617,0.34535905718803406,0.042967747896909714
1701816363113472000,5.815471923828125,-0.003928431309759617,0.36687201261520386,0.03037114255130291
1701816363123424000,5.825424072265625,0.003184072906151414,0.3848209083080292,0.018379459157586098
1701816363133377000,5.835376953125,0.0044948202557861805,0.4048372507095337,0.007152801379561424
1701816363143330000,5.845330078125,0.012676849961280823,0.42926108837127686,-0.0046764276921749115
1701816363153282800,5.85528271484375,0.03165678679943085,0.4465579688549042,-0.01913175731897354
1701816363163235800,5.86523583984375,0.06372576951980591,0.4343886375427246,-0.012241628021001816
1701816363173188900,5.87518896484375,0.08333101123571396,0.42309650778770447,0.005819705780595541
1701816363183141000,5.88514111328125,0.08661176264286041,0.4200762212276459,0.012134859338402748
1701816363193094000,5.895093994140625,0.07704079151153564,0.43125998973846436,0.0011757907923310995
1701816363203047000,5.905046875,0.06856821477413177,0.4161604046821594,0.0035444062668830156
1701816363213000000,5.915,0.06649951636791229,0.3290015459060669,0.03743095323443413
1701816363222953000,5.924952880859375,0.04630636051297188,0.23109334707260132,0.05774048715829849
1701816363232906000,5.934906005859375,0.019401660189032555,0.15323109924793243,0.04674318805336952
1701816363242858000,5.94485791015625,-0.014850321225821972,0.07926447689533234,0.02994556911289692
1701816363252811000,5.95481103515625,-0.044851526618003845,-0.009868258610367775,0.015787938609719276
1701816363262764000,5.964763916015625,-0.06370830535888672,-0.07227065414190292,0.003372281789779663
1701816363272717000,5.974717041015625,-0.07356703281402588,-0.09517129510641098,0.0007332726381719112
1701816363282670000,5.984670166015625,-0.05147477984428406,-0.12075415253639221,0.022608211264014244
1701816363292622000,5.9946220703125,-0.009199625812470913,-0.16358785331249237,0.041475724428892136
1701816363302574800,6.004574951171875,0.026367690414190292,-0.17541521787643433,0.04388854652643204
1701816363312528000,6.01452783203125,0.06175568327307701,-0.1961410492658615,0.040273185819387436
1701816363322481000,6.02448095703125,0.09011275321245193,-0.22397401928901672,0.03219661861658096
1701816363332434000,6.034433837890625,0.09586139768362045,-0.21775022149085999,0.019975800067186356
1701816363342387000,6.044386962890625,0.08287662267684937,-0.19443291425704956,0.010289882309734821
1701816363352339000,6.0543388671875,0.06591866910457611,-0.16769427061080933,0.021020948886871338
1701816363362292000,6.0642919921875,0.05070056393742561,-0.1520676463842392,0.041099853813648224
1701816363372245000,6.074244873046875,0.031477510929107666,-0.12344936281442642,0.06769140064716339
1701816363382198000,6.084197998046875,0.013284390792250633,-0.09978771209716797,0.09281725436449051
1701816363392150800,6.09415087890625,0.002141933888196945,-0.08785916119813919,0.11266648769378662
1701816363402103800,6.104103759765625,-0.003999049309641123,-0.09201822429895401,0.11560501903295517
1701816363412056000,6.11405615234375,-0.009583951905369759,-0.11097368597984314,0.10593752562999725
1701816363422009000,6.124009033203125,-0.01329799648374319,-0.11453139781951904,0.07839245349168777
1701816363431962000,6.133962158203125,-0.016631102189421654,-0.10845426470041275,0.03764234855771065
1701816363441915100,6.1439150390625,-0.02155102789402008,-0.08889920264482498,-0.015287976711988449
1701816363451868200,6.1538681640625,-0.023575739935040474,-0.0437774732708931,-0.06386204808950424
1701816363461820000,6.16381982421875,-0.023540852591395378,0.014123376458883286,-0.07143820822238922
1701816363471773000,6.17377294921875,-0.020453182980418205,0.05775847285985947,-0.034813083708286285
1701816363481726000,6.183725830078125,-0.018699757754802704,0.09790189564228058,0.020301032811403275
1701816363491678500,6.193678466796875,-0.021189503371715546,0.11600915342569351,0.07134350389242172
1701816363501631200,6.20363134765625,-0.03083787113428116,0.1008155569434166,0.09957487881183624
1701816363511584300,6.213584228515625,-0.05088179558515549,0.07341019064188004,0.09345388412475586
1701816363521536300,6.223536376953125,-0.05987529084086418,0.040662091225385666,0.06018062308430672
1701816363531489300,6.2334892578125,-0.0659097209572792,0.005224780645221472,0.026110822334885597
1701816363541442300,6.2434423828125,-0.06022093817591667,-0.022489404305815697,0.002795911394059658
1701816363551395300,6.253395263671875,-0.04496727138757706,-0.025139711797237396,-0.008769173175096512
1701816363561348400,6.263348388671875,-0.028661536052823067,-0.006054434925317764,-0.01486994232982397
1701816363571300400,6.27330029296875,-0.014064171351492405,0.025438770651817322,-0.012207617051899433
1701816363581253400,6.28325341796875,-0.0016879288014024496,0.046458300203084946,-0.0024471324868500233
1701816363591206400,6.293206298828125,0.0038197392132133245,0.060774803161621094,0.005182779394090176
1701816363601159400,6.303159423828125,-0.0007094987668097019,0.06980398297309875,0.006910904310643673
1701816363611112400,6.313112548828125,-0.008879248052835464,0.07892438769340515,0.004552061203867197
1701816363621065500,6.3230654296875,-0.013453492894768715,0.07872918248176575,-0.0008682706393301487
1701816363631017500,6.333017578125,-0.014657464809715748,0.06711848080158234,-0.00802385713905096
1701816363640970500,6.342970458984375,-0.01352961640805006,0.059418756514787674,-0.013470021076500416
1701816363650923300,6.35292333984375,-0.008136107586324215,0.052115604281425476,-0.028367232531309128
1701816363660876300,6.362876220703125,-0.0014166857581585646,0.04613254591822624,-0.041650015860795975
1701816363670829300,6.372829345703125,0.004468721803277731,0.044119786471128464,-0.05202396959066391
1701816363680782300,6.3827822265625,0.0062051028944551945,0.050926558673381805,-0.05617424100637436
1701816363690734300,6.392734375,0.007973959669470787,0.05343044176697731,-0.04563305899500847
1701816363700687400,6.402687255859375,0.014425467699766159,0.05107594281435013,-0.03326613828539848
1701816363710640400,6.412640380859375,0.017655659466981888,0.044353753328323364,-0.01761787384748459
1701816363720593400,6.422593505859375,0.01892518810927868,0.02927706576883793,-0.004107126034796238
1701816363730546400,6.43254638671875,0.01454305648803711,0.012664075940847397,-0.0009419550187885761
1701816363740499200,6.442499267578125,0.013184845447540283,-0.01518113724887371,0.000017315614968538284
1701816363750451200,6.452451171875,0.022975102066993713,-0.060666944831609726,0.005987019743770361
1701816363760404200,6.462404296875,0.027420183643698692,-0.11278074234724045,-0.000375538133084774
1701816363770357200,6.472357177734375,0.02331777662038803,-0.1543685495853424,-0.01204246561974287
1701816363780310300,6.482310302734375,0.0106123685836792,-0.16812776029109955,-0.02686881646513939
1701816363790263300,6.49226318359375,-0.004954843781888485,-0.1666647493839264,-0.03205167502164841
1701816363800215600,6.502215576171875,-0.00630613137036562,-0.1601855456829071,-0.03307965397834778
1701816363810168300,6.512168212890625,-0.01132938638329506,-0.13355499505996704,-0.02688967064023018
1701816363820121300,6.522121337890625,-0.015581921674311161,-0.10930771380662918,-0.006976415403187275
1701816363830074400,6.532074462890625,-0.012977410107851028,-0.09333834797143936,0.019985325634479523
1701816363840027400,6.54202734375,-0.007320856675505638,-0.0755644142627716,0.03492805361747742
1701816363849980400,6.55198046875,-0.000017627142369747162,-0.06866586208343506,0.045138679444789886
1701816363859932400,6.561932373046875,0.004429318942129612,-0.07778345793485641,0.05329035222530365
1701816363869885400,6.571885498046875,0.004998981021344662,-0.0949816033244133,0.05641331896185875
1701816363879838500,6.58183837890625,-0.003123926930129528,-0.09821894019842148,0.045373983681201935
1701816363889791200,6.591791259765625,-0.010493053123354912,-0.09283146262168884,0.02733016386628151
1701816363899744300,6.601744140625,-0.004084955435246229,-0.09329298883676529,0.02058544009923935
1701816363909697300,6.611697265625,0.008194972760975361,-0.10020506381988525,0.01756889559328556
1701816363919649300,6.621649169921875,0.01059581246227026,-0.09859225153923035,0.009591929614543915
1701816363929602300,6.631602294921875,0.001363151241093874,-0.07973123341798782,-0.0074961199425160885
1701816363939555300,6.641555419921875,-0.0037605040706694126,-0.05575932189822197,-0.0169141236692667
1701816363949508400,6.65150830078125,0.0005149790085852146,-0.031384844332933426,-0.020647812634706497
1701816363959461400,6.66146142578125,0.007025075610727072,-0.010183153674006462,-0.017552420496940613
1701816363969413400,6.671413330078125,0.014099081978201866,0.010423250496387482,-0.012818346731364727
1701816363979366400,6.681366455078125,0.008487269282341003,0.033434826880693436,-0.005295182578265667
1701816363989319400,6.6913193359375,0.0026552071794867516,0.04517234116792679,-0.00008220132440328598
1701816363999272400,6.7012724609375,0.0026253797113895416,0.03839593008160591,-0.00046782707795500755
1701816364009225500,6.7112255859375,0.005734936334192753,0.02797667123377323,-0.014365674927830696
1701816364019178500,6.721178466796875,0.009584003128111362,0.02683124877512455,-0.034157223999500275
1701816364029130500,6.731130615234375,0.011410769075155258,0.030887052416801453,-0.04769700765609741
1701816364039083500,6.74108349609375,0.01653415895998478,0.03347138315439224,-0.05041103437542915
1701816364049036300,6.751036376953125,0.021949222311377525,0.02974952943623066,-0.04712502285838127
1701816364058989300,6.7609892578125,0.022138573229312897,0.02663549594581127,-0.041366469115018845
1701816364068942300,6.7709423828125,0.016773266717791557,0.020411614328622818,-0.034018274396657944
1701816364078895400,6.780895263671875,0.010381413623690605,0.016647499054670334,-0.028903940692543983
1701816364088847400,6.790847412109375,0.007095532026141882,0.017609933391213417,-0.025560587644577026
1701816364098800400,6.80080029296875,0.002500779926776886,0.025853481143712997,-0.02424897998571396
1701816364108753400,6.81075341796875,-0.000120481476187706,0.0321178212761879,-0.017297208309173584
1701816364118706400,6.82070654296875,0.0007495733443647623,0.03922633081674576,-0.009870185516774654
1701816364128659200,6.8306591796875,0.007001727819442749,0.04158155992627144,-0.0028114360757172108
1701816364138611200,6.840611083984375,0.007577769458293915,0.03155023232102394,0.002747646067291498
1701816364148564200,6.850564208984375,0.00781983695924282,0.008124781772494316,0.005406935699284077
1701816364158517200,6.860517333984375,0.006174536421895027,-0.015087063424289227,0.005821057595312595
1701816364168470300,6.87047021484375,-0.006377477198839188,-0.037184543907642365,0.007261739112436771
1701816364178423300,6.88042333984375,-0.023027027025818825,-0.04923934116959572,0.012441853061318398
1701816364188376300,6.890376220703125,-0.037604283541440964,-0.05085432529449463,0.01948292925953865
1701816364198328300,6.900328369140625,-0.040130291134119034,-0.047997552901506424,0.02645002491772175
1701816364208281300,6.91028125,-0.03412706404924393,-0.041660599410533905,0.0344453863799572
1701816364218234400,6.920234375,-0.028966659680008888,-0.033471643924713135,0.03833147510886192
1701816364228187400,6.9301875,-0.023806696757674217,-0.025987839326262474,0.03338344395160675
1701816364238140400,6.940140380859375,-0.017770908772945404,-0.01970570906996727,0.02801664173603058
1701816364248093400,6.950093505859375,-0.015721218660473824,-0.020787188783288002,0.019307244569063187
1701816364258045400,6.96004541015625,-0.011278001591563225,-0.029029404744505882,0.01679588481783867
1701816364267998500,6.96999853515625,-0.0026360158808529377,-0.034007877111434937,0.013794520869851112
1701816364277951500,6.979951416015625,0.0032618206460028887,-0.03631657361984253,0.008105210028588772
1701816364287904300,6.989904296875,-0.0019307066686451435,-0.027192041277885437,0.0003030160441994667
1701816364297857300,6.999857177734375,-0.002000214997678995,-0.010878047905862331,-0.0055474163964390755
1701816364307810300,7.009810302734375,-0.009764780290424824,0.0019882856868207455,-0.006620708853006363
1701816364317762300,7.01976220703125,-0.01566021889448166,0.01834329031407833,-0.004471272230148315
1701816364327715300,7.02971533203125,-0.020426224917173386,0.02651135064661503,0.00022862525656819344
1701816364337668400,7.03966845703125,-0.013800812885165215,0.020831894129514694,0.007664171047508717
1701816364347621400,7.049621337890625,-0.0016374767292290926,0.008101521991193295,0.012693776749074459
1701816364357574400,7.059574462890625,0.00909745879471302,0.0034258104860782623,0.007749618496745825
1701816364367526400,7.0695263671875,0.013718071393668652,0.0069225807674229145,-0.006160320248454809
1701816364377479400,7.0794794921875,0.017014265060424805,0.00653668912127614,-0.010419780388474464
1701816364387432400,7.089432373046875,0.020382128655910492,0.000049202702939510345,-0.005776468198746443
1701816364397385500,7.099385498046875,0.015816139057278633,-0.006995391100645065,-0.0018544308841228485
1701816364407338500,7.10933837890625,0.01237977109849453,-0.00952458381652832,-0.005818469449877739
1701816364417291500,7.11929150390625,0.007022823207080364,-0.007814568467438221,-0.010045171715319157
1701816364427243500,7.129243408203125,0.0074651483446359634,-0.006421509198844433,-0.012366940267384052
1701816364437196300,7.1391962890625,0.011808497831225395,-0.0014922642149031162,-0.011885174550116062
1701816364447149300,7.1491494140625,0.01367024052888155,0.00610303645953536,-0.009399092756211758
1701816364457102300,7.159102294921875,0.011362610384821892,0.009514013305306435,-0.0005158530548214912
1701816364467055400,7.169055419921875,0.007952092215418816,0.00891929306089878,0.008313877508044243
1701816364477008400,7.17900830078125,-0.0005332715809345245,0.0013250233605504036,0.0174541138112545
1701816364486960400,7.18896044921875,-0.01100662536919117,-0.0027445380110293627,0.021877195686101913
1701816364496914400,7.19891455078125,-0.018123390153050423,-0.0020561108831316233,0.020736295729875565
1701816364506867500,7.208867431640625,-0.01823931187391281,0.004226251505315304,0.011560661718249321
1701816364516820500,7.218820556640625,-0.01570717804133892,0.015865065157413483,0.004669466521590948
1701816364526773500,7.2287734375,-0.010024690069258213,0.02607330121099949,0.002872897544875741
1701816364536725500,7.2387255859375,-0.004405153915286064,0.03206142038106918,0.0073691122233867645
1701816364546678500,7.248678466796875,-0.0028303361032158136,0.03229992836713791,0.011879729107022285
1701816364556631600,7.258631591796875,-0.0014489544555544853,0.030371002852916718,0.011828329414129257
1701816364566584600,7.26858447265625,0.0008066827431321144,0.023213474079966545,0.00960395485162735
1701816364576537600,7.27853759765625,0.0021182894706726074,0.02449978142976761,-0.0010798489674925804
1701816364586490400,7.288490478515625,0.0027323532849550247,0.028177855536341667,-0.012479608878493309
1701816364596442400,7.2984423828125,0.00004975101910531521,0.03582672402262688,-0.016251178458333015
1701816364606395400,7.3083955078125,0.002445839811116457,0.04472050815820694,-0.013569045811891556
1701816364616348400,7.318348388671875,0.0007629883475601673,0.05090543255209923,-0.01365453377366066
1701816364626301400,7.328301513671875,0.0066823214292526245,0.04776979237794876,-0.009535133838653564
1701816364636254500,7.33825439453125,0.004824500530958176,0.034494467079639435,-0.007326840423047543
1701816364646207500,7.34820751953125,0.003054569009691477,0.019177664071321487,-0.006301898509263992
1701816364656159500,7.358159423828125,-0.000023246044293045998,0.007423004135489464,-0.01110038161277771
1701816364666112500,7.368112548828125,0.00031718029640614986,0.007617715746164322,-0.017058691009879112
1701816364676065500,7.3780654296875,0.001082839211449027,0.009265147149562836,-0.019853945821523666
1701816364686018600,7.3880185546875,0.004851727746427059,0.017142124474048615,-0.015468291938304901
1701816364695971600,7.3979716796875,0.004230944439768791,0.020568814128637314,-0.011517759412527084
1701816364705923600,7.407923583984375,0.005570217967033386,0.020334847271442413,-0.006911472417414188
1701816364715876600,7.417876708984375,0.008976933546364307,0.017045842483639717,-0.004558037035167217
1701816364725829600,7.42782958984375,0.01656993292272091,0.007611877750605345,-0.009085576981306076
1701816364735782400,7.437782470703125,0.021101567894220352,-0.0012977274600416422,-0.011761254630982876
1701816364745735400,7.4477353515625,0.024095894768834114,-0.006952101364731789,-0.017249681055545807
1701816364755688400,7.4576884765625,0.019902480766177177,-0.007973955944180489,-0.013625118881464005
1701816364765640400,7.467640380859375,0.013348720967769623,-0.004908804316073656,-0.007190607022494078
1701816364775593500,7.477593505859375,0.013622760772705078,-0.005866210907697678,0.008835764601826668
1701816364785546500,7.48754638671875,0.014669650234282017,-0.0068681915290653706,0.02123100683093071
1701816364795499500,7.49749951171875,0.01634477823972702,-0.009545734152197838,0.02515118196606636
1701816364805452500,7.50745263671875,0.011777649633586407,-0.012781242839992046,0.022387372329831123
1701816364815405600,7.517405517578125,0.0049234721809625626,-0.012927450239658356,0.014817869290709496
1701816364825357300,7.527357421875,-0.0036592460237443447,-0.011373566463589668,0.0070092566311359406
1701816364835310300,7.537310302734375,-0.003377217333763838,-0.011357586830854416,0.009365089237689972
1701816364845263400,7.547263427734375,-0.0004501654766499996,-0.007502169348299503,0.01156830508261919
1701816364855216400,7.55721630859375,0.004321420099586248,-0.0007744915783405304,0.01738198660314083
1701816364865169400,7.56716943359375,0.005277036689221859,0.003854383248835802,0.018734851852059364
1701816364875122400,7.577122314453125,0.005176901817321777,0.00018454715609550476,0.02159561961889267
1701816364885074400,7.587074462890625,-0.0017094416543841362,-0.006332825869321823,0.01835715025663376
1701816364895027500,7.59702734375,-0.009375350549817085,-0.013105777092278004,0.011775946244597435
1701816364904980500,7.60698046875,-0.011374437250196934,-0.015066325664520264,0.002986941486597061
1701816364914933500,7.61693359375,-0.012808550149202347,-0.018038146197795868,-0.002334054559469223
1701816364924886500,7.626886474609375,-0.014316772110760212,-0.016024034470319748,-0.012394125573337078
1701816364934838500,7.636838623046875,-0.01746303029358387,-0.013516668230295181,-0.023306425660848618
1701816364944791600,7.64679150390625,-0.021738173440098763,-0.011244317516684532,-0.03960904851555824
1701816364954744600,7.65674462890625,-0.026571277529001236,-0.011045379564166069,-0.05686872825026512
1701816364964697600,7.666697509765625,-0.030116433277726173,-0.01504288986325264,-0.08299773931503296
1701816364974650400,7.676650390625,-0.020743170753121376,-0.021326618269085884,-0.0879826471209526
1701816364984603400,7.686603271484375,-0.006428933702409267,-0.027135483920574188,-0.07530665397644043
1701816364994555400,7.696555419921875,0.0043281069956719875,-0.029754437506198883,-0.05767173692584038
1701816365004508400,7.70650830078125,0.014458771795034409,-0.021460289135575294,-0.0389861986041069
1701816365014461400,7.71646142578125,0.009441908448934555,-0.011067835614085197,-0.022156618535518646
1701816365024414500,7.72641455078125,-0.006560406647622585,-0.0017363301012665033,-0.010083318687975407
1701816365034367500,7.736367431640625,-0.014936314895749092,-0.006428021006286144,-0.007437468506395817
1701816365044320500,7.746320556640625,-0.012081300839781761,-0.027849780395627022,-0.003740838263183832
1701816365054272500,7.7562724609375,-0.0075320890173316,-0.05250772461295128,-0.013729022815823555
1701816365064225500,7.7662255859375,-0.0071693360805511475,-0.07471967488527298,-0.028426293283700943
1701816365074178600,7.776178466796875,-0.0037370542995631695,-0.09926017373800278,-0.041546087712049484
1701816365084131600,7.786131591796875,0.0020080162212252617,-0.10993404686450958,-0.055141523480415344
1701816365094084600,7.796084716796875,0.00660250149667263,-0.12283360213041306,-0.0699622854590416
1701816365104036600,7.80603662109375,0.007417404092848301,-0.11655683815479279,-0.08303096890449524
1701816365113989600,7.81598974609375,0.012652379460632801,-0.09294497966766357,-0.07830678671598434
1701816365123942400,7.8259423828125,0.008870512247085571,-0.06018511950969696,-0.05985921248793602
1701816365133895400,7.8358955078125,0.006959959864616394,-0.015607796609401703,-0.03490353375673294
1701816365143848400,7.845848388671875,0.006600419990718365,0.026312734931707382,-0.0161835178732872
1701816365153801500,7.855801513671875,0.006390295922756195,0.0586983747780323,0.0002692264970391989
1701816365163753500,7.86575341796875,0.009458432905375957,0.07059375941753387,0.008317547850310802
1701816365173706500,7.87570654296875,0.0032189125195145607,0.05743028596043587,0.004776076413691044
1701816365183659500,7.885659423828125,-0.0018810097826644778,0.030606267973780632,-0.007380272261798382
1701816365193612500,7.895612548828125,-0.011834841221570969,0.004166139289736748,-0.019343191757798195
1701816365203565600,7.905565673828125,-0.02332231216132641,-0.01008493360131979,-0.028617406263947487
1701816365213517300,7.915517333984375,-0.026002783328294754,-0.0066577112302184105,-0.03499860689043999
1701816365223470300,7.92547021484375,-0.016469182446599007,0.01004628837108612,-0.03171328827738762
1701816365233423400,7.93542333984375,-0.0021344521082937717,0.025975987315177917,-0.023146698251366615
1701816365243376400,7.94537646484375,0.008462294936180115,0.039186201989650726,-0.015624679625034332
1701816365253329400,7.955329345703125,0.017861124128103256,0.04789101332426071,-0.01904657483100891
1701816365263282400,7.965282470703125,0.023976704105734825,0.053433939814567566,-0.02842133305966854
1701816365273234700,7.975234619140625,0.023537015542387962,0.05140780657529831,-0.033992670476436615
1701816365283187500,7.9851875,0.022671056911349297,0.05692754685878754,-0.03850619122385979
1701816365293140500,7.995140380859375,0.026226909831166267,0.05655018240213394,-0.0313795730471611
1701816365303093500,8.005093505859374,0.030685190111398697,0.044416721910238266,-0.02040376141667366
1701816365313046500,8.015046630859375,0.02594795823097229,0.03293183818459511,-0.009505308233201504
1701816365322999600,8.02499951171875,0.016848275437951088,0.02520541287958622,-0.0042569381184875965
1701816365332951600,8.03495166015625,0.015258104540407658,0.01161104068160057,-0.0015378505922853947
1701816365342904600,8.044904541015624,0.017228826880455017,0.004265057388693094,0.00031414255499839783
1701816365352857600,8.054857666015625,0.01832897961139679,0.0034464015625417233,0.000698969466611743
1701816365362810400,8.064810302734376,0.017734266817569733,0.010560262948274612,-0.006670090369880199
1701816365372763400,8.074763427734375,0.015482032671570778,0.017617374658584595,-0.006126538850367069
1701816365382716400,8.08471630859375,0.017508696764707565,0.028209829702973366,-0.01196338888257742
1701816365392668400,8.09466845703125,0.019619785249233246,0.039102692157030106,-0.013962890021502972
1701816365402621400,8.104621337890626,0.024922937154769897,0.05008396878838539,-0.01656932756304741
1701816365412574500,8.114574462890625,0.030887087807059288,0.06005218252539635,-0.01675654575228691
1701816365422527500,8.124527587890626,0.028752340003848076,0.06083744391798973,-0.017773812636733055
1701816365432480500,8.13448046875,0.021167391911149025,0.0540277399122715,-0.015725042670965195
1701816365442432500,8.1444326171875,0.007084626704454422,0.03364111855626106,-0.009376682341098785
1701816365452385500,8.154385498046874,-0.004927294794470072,0.016698885709047318,-0.004987526219338179
1701816365462338600,8.164338623046875,-0.020873669534921646,0.009116875007748604,-0.003099269699305296
1701816365472291600,8.17429150390625,-0.029337462037801743,0.011525171808898449,-0.007350473199039698
1701816365482244600,8.18424462890625,-0.01809152215719223,0.019313737750053406,-0.012067209929227829
1701816365492196600,8.194196533203124,-0.02050488069653511,0.03618033230304718,-0.010041344910860062
1701816365502148600,8.204148681640625,-0.014903836883604527,0.04544367641210556,-0.0026905289851129055
1701816365512101600,8.2141015625,-0.0056317755952477455,0.05268161743879318,0.0024235392920672894
1701816365522054700,8.2240546875,0.003061072900891304,0.04555131122469902,0.012572607025504112
1701816365532007400,8.23400732421875,0.012311030179262161,0.02268753945827484,0.020659295842051506
1701816365541960400,8.24396044921875,0.021942831575870514,0.011666666716337204,0.020140035077929497
1701816365551913500,8.25391357421875,0.018511880189180374,0.0015208213590085506,0.01321182120591402
1701816365561865500,8.263865478515624,0.008457072079181671,0.0033883354626595974,0.005662229843437672
1701816365571818500,8.273818603515625,-0.001442696899175644,0.015371229499578476,-0.0007815542630851269
1701816365581771500,8.283771484375,-0.00867106206715107,0.02484274096786976,-0.0021915752440690994
1701816365591724500,8.293724609375,-0.008740304969251156,0.02677140384912491,0.007795278914272785
1701816365601677600,8.303677490234374,-0.011255113407969475,0.023629257455468178,0.0203073900192976
1701816365611629600,8.313629638671875,-0.012258060276508331,0.01125168427824974,0.024657130241394043
1701816365621582600,8.32358251953125,-0.006192680913954973,0.0035397433675825596,0.02010846510529518
1701816365631535600,8.33353564453125,0.0008452546317130327,0.0014963001012802124,0.015421568416059017
1701816365641488600,8.343488525390624,0.009127048775553703,-0.0013334846589714289,0.01187114417552948
1701816365651441700,8.353441650390625,0.01340808067470789,-0.0015931427478790283,0.016342058777809143
1701816365661394700,8.363394775390624,0.011246627196669579,0.006400460377335548,0.022822411730885506
1701816365671346700,8.3733466796875,0.0017199679277837276,0.012193635106086731,0.024743350222706795
1701816365681299700,8.3832998046875,-0.0009084544144570827,0.012472396716475487,0.02102322317659855
1701816365691252500,8.39325244140625,0.005380334332585335,0.007913865149021149,0.01664445362985134
1701816365701205500,8.40320556640625,0.01655169203877449,0.010141930542886257,0.005609029904007912
1701816365711158500,8.413158447265625,0.029917830601334572,0.010656986385583878,-0.0060502891428768635
1701816365721111600,8.423111572265626,0.04044929891824722,0.01752634346485138,-0.014672806486487389
1701816365731063600,8.4330634765625,0.04778098315000534,0.023933108896017075,-0.018374068662524223
1701816365741016600,8.4430166015625,0.04888923093676567,0.025570331141352654,-0.016649503260850906
1701816365750969600,8.452969482421874,0.045456413179636,0.02759539894759655,-0.016119003295898438
1701816365760922600,8.462922607421875,0.04076451435685158,0.02486157789826393,-0.012537115253508091
1701816365770875600,8.472875732421874,0.03429063782095909,0.01317562721669674,-0.01223378162831068
1701816365780827600,8.48282763671875,0.02631022222340107,0.013500554487109184,-0.01154547743499279
1701816365790780700,8.49278076171875,0.02425532601773739,0.021193627268075943,-0.01919221132993698
1701816365800733400,8.5027333984375,0.032024186104536057,0.02976667881011963,-0.02789972722530365
1701816365810686500,8.5126865234375,0.03949248790740967,0.03466103598475456,-0.03317784518003464
1701816365820639500,8.522639404296875,0.048930730670690536,0.029810886830091476,-0.035927824676036835
1701816365830592500,8.532592529296876,0.05124394968152046,0.022716227918863297,-0.03928473964333534
1701816365840544500,8.54254443359375,0.04577118158340454,0.020998096093535423,-0.04583273455500603
1701816365850497500,8.55249755859375,0.0394030325114727,0.019216440618038177,-0.05525180324912071
1701816365860450600,8.562450439453125,0.03145578131079674,0.018513623625040054,-0.04953857138752937
1701816365870403600,8.572403564453126,0.02377229556441307,0.01015529129654169,-0.029564330354332924
1701816365880356600,8.582356689453125,0.013357449322938919,-0.004072153940796852,-0.00628993334248662
1701816365890309600,8.5923095703125,-0.0002808652352541685,-0.007502305321395397,0.012095998972654343
1701816365900261600,8.60226171875,-0.007710572332143784,-0.00947156734764576,0.012158017605543137
1701816365910214700,8.612214599609375,-0.005964604206383228,-0.007074190303683281,0.003224976360797882
1701816365920167700,8.622167724609374,0.0006578993052244186,-0.009058657102286816,-0.007050265092402697
1701816365930120400,8.632120361328125,0.0062558637000620365,-0.004534212406724691,-0.011241814121603966
1701816365940073500,8.642073486328124,0.007318275514990091,0.004223462659865618,-0.010395582765340805
1701816365950025500,8.652025390625,0.010115392506122589,0.010852070525288582,-0.0033267545513808727
1701816365959978500,8.661978515625,0.008616283535957336,0.01614401675760746,0.0008561345748603344
1701816365969931500,8.671931640625,0.0069853635504841805,0.013422532007098198,0.003969902638345957
1701816365979884500,8.681884521484376,0.014209426008164883,0.0038785883225500584,0.0037642160896211863
1701816365989837600,8.691837646484375,0.01697937771677971,0.0006993063725531101,-0.004491849336773157
1701816365999790600,8.70179052734375,0.012676063925027847,0.006155379582196474,-0.012538731098175049
1701816366009742600,8.71174267578125,0.0048663439229130745,0.012226587161421776,-0.014248214662075043
1701816366019695600,8.721695556640626,-0.006595364771783352,0.012365704402327538,-0.005317674018442631
1701816366029648600,8.731648681640625,-0.011219412088394165,0.004698996897786856,0.005858281627297401
1701816366039601700,8.7416015625,-0.004884182475507259,-0.004513866733759642,0.0074010491371154785
1701816366049554700,8.7515546875,0.0036006488371640444,-0.007416978478431702,-0.00024275528267025948
1701816366059507700,8.7615078125,0.016514340415596962,-0.0066182566806674,-0.01201123371720314
1701816366069459700,8.771459716796874,0.02588547207415104,-0.00377426715567708,-0.018664609640836716
1701816366079412500,8.78141259765625,0.03004024364054203,0.002662819344550371,-0.01937011070549488
1701816366089365500,8.791365478515624,0.03191883862018585,0.008761990815401077,-0.010385405272245407
1701816366099318500,8.801318603515625,0.035177502781152725,0.007081923540681601,0.005831690039485693
1701816366109271600,8.811271484375,0.0292437095195055,-0.0019158320501446724,0.021431954577565193
1701816366119224600,8.821224609375,0.02059105597436428,-0.005989564582705498,0.020031604915857315
1701816366129176600,8.831176513671876,0.011329114437103271,-0.012537479400634766,0.015202494338154793
1701816366139129600,8.841129638671875,-0.0038776390720158815,-0.032887134701013565,0.018463635817170143
1701816366149082600,8.85108251953125,-0.018887747079133987,-0.05333461984992027,0.03499467670917511
1701816366159035600,8.86103564453125,-0.04373954236507416,-0.06558272242546082,0.06476910412311554
1701816366168988400,8.870988525390626,-0.07019725441932678,-0.05711307004094124,0.12172134220600128
1701816366178940400,8.8809404296875,-0.08710602670907974,-0.02513960190117359,0.18745358288288116
1701816366188893400,8.8908935546875,-0.08183696120977402,0.016460571438074112,0.21307452023029327
1701816366198846500,8.900846435546875,-0.10628210008144379,0.06464243680238724,0.21307019889354706
1701816366208799500,8.910799560546875,-0.12649495899677277,0.06732477247714996,0.20150037109851837
1701816366218752500,8.92075244140625,-0.10776091367006302,0.06265604496002197,0.166816845536232
1701816366228705500,8.93070556640625,-0.0634661540389061,0.04536201059818268,0.11071309447288513
1701816366238657500,8.940657470703124,-0.013803803361952305,0.026712406426668167,0.05545955151319504
1701816366248610600,8.950610595703125,0.031472064554691315,0.013163039460778236,0.013931550085544586
1701816366258563600,8.9605634765625,0.06379722058773041,0.004433956928551197,-0.014115544967353344
1701816366268516600,8.9705166015625,0.06679380685091019,-0.0013885118532925844,-0.02097584679722786
1701816366278469600,8.9804697265625,0.053783807903528214,-0.013168536126613617,-0.007769688963890076
1701816366288422700,8.990422607421875,0.031582098454236984,-0.01662452146410942,0.011876716278493404
1701816366298374700,9.000374755859376,-0.00016828463412821293,-0.0032744717318564653,0.027296442538499832
1701816366308327700,9.01032763671875,-0.02652452513575554,0.01602732017636299,0.03141661733388901
1701816366318280400,9.020280517578126,-0.031501367688179016,0.03501426428556442,0.020464448258280754
1701816366328233500,9.0302333984375,-0.01287841610610485,0.045795001089572906,0.001238557044416666
1701816366338186500,9.0401865234375,0.013090751133859158,0.04716403782367706,-0.02563820406794548
1701816366348138500,9.050138427734375,0.03274780884385109,0.057593509554862976,-0.05344799906015396
1701816366358091500,9.060091552734375,0.04449021816253662,0.07010291516780853,-0.07214898616075516
1701816366368044500,9.07004443359375,0.048367515206336975,0.0800871029496193,-0.07913658767938614
1701816366377997600,9.07999755859375,0.04848340526223183,0.08942431211471558,-0.07332178205251694
1701816366387950600,9.08995068359375,0.03976661339402199,0.09200064837932587,-0.057714056223630905
1701816366397903600,9.099903564453125,0.03350865840911865,0.08567626029253006,-0.052052903920412064
1701816366407855600,9.109855712890624,0.037255991250276566,0.07267417758703232,-0.062481045722961426
1701816366417808600,9.11980859375,0.05585005134344101,0.03974653035402298,-0.07874719053506851
1701816366427761700,9.12976171875,0.0710282027721405,0.006395234726369381,-0.09058467298746109
1701816366437714700,9.139714599609375,0.07235364615917206,-0.009607553482055664,-0.10039633512496948
1701816366447667700,9.149667724609374,0.07092006504535675,-0.014426810666918755,-0.10180194675922394
1701816366457620700,9.159620849609375,0.06984573602676392,-0.006821641232818365,-0.09778071939945221
1701816366467572700,9.16957275390625,0.06219153851270676,-0.002924371277913451,-0.08070053160190582
1701816366477525500,9.179525390625,0.0501391664147377,0.00006266962736845016,-0.05247314274311066
1701816366487478500,9.189478515625,0.03804735094308853,0.0005510933697223663,-0.03439720347523689
1701816366497432000,9.19943212890625,0.02469402365386486,-0.0026829084381461143,-0.024669822305440903
1701816366507385000,9.209385009765626,0.011286872439086437,-0.008379410021007061,-0.013814777135848999
1701816366517338000,9.219338134765625,-0.00005019223317503929,-0.008705627173185349,-0.012365072965621948
1701816366527290000,9.2292900390625,0.0042233821004629135,-0.010604195296764374,-0.01003347523510456
1701816366537243000,9.239242919921875,0.013409916311502457,-0.015029896050691605,-0.007363554090261459
1701816366547196000,9.24919580078125,0.019876869395375252,-0.023638565093278885,-0.004190397448837757
1701816366557149000,9.25914892578125,0.0205630324780941,-0.028738034889101982,-0.0036360123194754124
1701816366567102000,9.26910205078125,0.020352909341454506,-0.03029784932732582,-0.007518368773162365
1701816366577054000,9.279053955078124,0.01330077089369297,-0.03060097247362137,-0.01293269731104374
1701816366587007000,9.289007080078125,0.002913643606007099,-0.026979073882102966,-0.017973795533180237
1701816366596960000,9.2989599609375,-0.005023523233830929,-0.019091125577688217,-0.022442005574703217
1701816366606913000,9.3089130859375,-0.00475853867828846,-0.008360717445611954,-0.02029869332909584
1701816366616865800,9.31886572265625,-0.004912084899842739,-0.00025412579998373985,-0.009311782196164131
1701816366626818800,9.32881884765625,-0.010580356232821941,0.005529460962861776,0.0063113858923316
1701816366636771000,9.33877099609375,-0.016059737652540207,0.009541016072034836,0.011809460818767548
1701816366646724000,9.34872412109375,-0.01824832335114479,0.0101993503049016,0.012526118196547031
1701816366656677000,9.358677001953126,-0.018762430176138878,0.004575889091938734,0.009160907939076424
1701816366666630100,9.368630126953125,-0.017620466649532318,-0.006841614842414856,0.006109191104769707
1701816366676583200,9.378583251953126,-0.016718633472919464,-0.011760684661567211,0.001834407215937972
1701816366686535000,9.388534912109375,-0.014010997489094734,-0.00886662770062685,-0.006754553876817226
1701816366696488000,9.398488037109376,-0.01196314487606287,-0.010201599448919296,-0.00597455445677042
1701816366706441000,9.40844091796875,-0.00771700032055378,-0.006563988514244556,-0.0019683614373207092
1701816366716394000,9.41839404296875,-0.005636805202811956,0.0013868790119886398,0.00013846531510353088
1701816366726347000,9.428346923828125,-0.0031411570962518454,0.006673786789178848,0.002834383398294449
1701816366736300000,9.438300048828125,0.0006489208899438381,0.00730900140479207,0.0038432737346738577
1701816366746252000,9.448251953125,0.011034449562430382,0.0003802548162639141,0.0013830456882715225
1701816366756205000,9.458205078125,0.01608886383473873,-0.011203963309526443,0.0007353648543357849
1701816366766158000,9.468157958984374,0.014570595696568489,-0.01695958711206913,-0.0013006217777729034
1701816366776110800,9.47811083984375,0.0035840629134327173,-0.01688268780708313,-0.001795890275388956
1701816366786064000,9.48806396484375,-0.003121776506304741,-0.014223254285752773,0.0033948770724236965
1701816366796017000,9.498016845703125,-0.012713149189949036,-0.012768534943461418,0.013100401498377323
1701816366805969000,9.507968994140626,-0.021784942597150803,-0.012278513982892036,0.01924564689397812
1701816366815922000,9.517921875,-0.026718730106949806,-0.00913823489099741,0.016770193353295326
1701816366825875000,9.527875,-0.030918002128601074,-0.011409112252295017,0.013158946298062801
1701816366835828000,9.537827880859375,-0.023539965972304344,-0.015951380133628845,0.0076271723955869675
1701816366845781000,9.547781005859376,-0.011489961296319962,-0.015943657606840134,0.00330965593457222
1701816366855733800,9.557733642578125,0.004982638172805309,-0.005547570530325174,-0.004772909916937351
1701816366865686000,9.56768603515625,0.01572183519601822,0.013490836136043072,-0.01156423706561327
1701816366875639000,9.57763916015625,0.01695254258811474,0.03455369174480438,-0.013465535826981068
1701816366885592000,9.587592041015625,0.014979138970375061,0.04103848710656166,-0.008324835449457169
1701816366895545000,9.597545166015625,0.009157666936516762,0.02294059470295906,0.006111908238381147
1701816366905498000,9.607498046875,0.0023642084561288357,-0.0060460492968559265,0.021227745339274406
1701816366915450000,9.6174501953125,-0.008721055462956429,-0.026921618729829788,0.020165909081697464
1701816366925403000,9.62740283203125,-0.01679815724492073,-0.033891644328832626,0.014337580651044846
1701816366935356000,9.63735595703125,-0.015619694255292416,-0.03215470910072327,0.00990276038646698
1701816366945309000,9.647308837890625,-0.00735697103664279,-0.0255519337952137,0.00839834101498127
1701816366955262000,9.657261962890624,0.006622346118092537,-0.013395107351243496,0.010508574545383453
1701816366965215000,9.667215087890625,0.01632850430905819,-0.004476180765777826,0.01601439341902733
1701816366975167000,9.6771669921875,0.02074289694428444,-0.0012410879135131836,0.02214844897389412
1701816366985120000,9.6871201171875,0.016979049891233444,-0.0028826603665947914,0.02588486671447754
1701816366995073000,9.697072998046876,0.010048089548945427,-0.0008199971634894609,0.019872821867465973
1701816367005026000,9.707026123046875,0.0074445828795433044,0.009083766490221024,0.00974082387983799
1701816367014978800,9.716978759765626,0.01295728050172329,0.023292535915970802,0.0010299277491867542
1701816367024931800,9.726931884765625,0.023463983088731766,0.03194674476981163,-0.0027190041728317738
1701816367034884000,9.736884033203125,0.034062713384628296,0.02730279415845871,-0.0016359379515051842
1701816367044837000,9.746837158203125,0.04324156418442726,0.021072059869766235,-0.001984013244509697
1701816367054790100,9.7567900390625,0.050149232149124146,0.010347003117203712,-0.00035182852298021317
1701816367064743200,9.7667431640625,0.04983444884419441,0.014122833497822285,-0.0036493544466793537
1701816367074696000,9.776696044921875,0.04487977549433708,0.026270361617207527,-0.009304503910243511
1701816367084649000,9.78664892578125,0.04299984872341156,0.02128945104777813,-0.014021760784089565
1701816367094601000,9.79660107421875,0.04162965714931488,0.016861246898770332,-0.014929207973182201
1701816367104554000,9.806553955078124,0.046889133751392365,0.018759548664093018,-0.008648942224681377
1701816367114507000,9.816507080078125,0.05040352791547775,0.027711020782589912,-0.00700751319527626
1701816367124460000,9.8264599609375,0.059451617300510406,0.03389621153473854,-0.005835455842316151
1701816367134413000,9.8364130859375,0.06666097790002823,0.033129964023828506,-0.00421264860779047
1701816367144365000,9.846364990234376,0.07289889454841614,0.028488874435424805,-0.004401732236146927
1701816367154318000,9.856318115234375,0.07532740384340286,0.017849404364824295,-0.0061524128541350365
1701816367164270800,9.866270751953126,0.07389835268259048,0.013396333903074265,-0.013744818978011608
1701816367174224000,9.876223876953125,0.0656682476401329,0.0170418843626976,-0.02703913301229477
1701816367184177000,9.886177001953126,0.059664953500032425,0.034148965030908585,-0.04579177871346474
1701816367194130000,9.8961298828125,0.0649837926030159,0.062261518090963364,-0.06559906154870987
1701816367204082000,9.90608203125,0.07083182781934738,0.0969204306602478,-0.08434052765369415
1701816367214035000,9.916034912109374,0.08004128187894821,0.13541656732559204,-0.10426634550094604
1701816367223988000,9.925988037109375,0.08226209133863449,0.17234662175178528,-0.11989030241966248
1701816367233941000,9.93594091796875,0.07750481367111206,0.19583114981651306,-0.12133105844259262
1701816367243894000,9.94589404296875,0.06470965594053268,0.18285435438156128,-0.10121806710958481
1701816367253846800,9.9558466796875,0.04192476347088814,0.14962075650691986,-0.07442590594291687
1701816367263799000,9.965799072265625,0.008393438532948494,0.11275569349527359,-0.053984545171260834
1701816367273752000,9.975751953125,-0.035471606999635696,0.09120349586009979,-0.04214007779955864
1701816367283705000,9.985705078125,-0.07266585528850555,0.07062605023384094,-0.031403809785842896
1701816367293658000,9.995658203125,-0.09149998426437378,0.05714123696088791,-0.02801024354994297
1701816367303611100,10.005611083984375,-0.0906914472579956,0.04741590470075607,-0.026531655341386795
1701816367313563100,10.015563232421876,-0.0649355947971344,0.041442256420850754,-0.025608237832784653
1701816367323516000,10.025515869140625,-0.04207554832100868,0.04294401407241821,-0.025560034438967705
1701816367333469000,10.035468994140626,-0.024822277948260307,0.04906304180622101,-0.026809897273778915
1701816367343422000,10.045421875,-0.009024140425026417,0.05468737334012985,-0.024637822061777115
1701816367353375000,10.055375,0.0043342034332454205,0.06959794461727142,-0.0002585267648100853
1701816367363328000,10.065327880859375,0.01223420538008213,0.04782979562878609,0.06149165704846382
1701816367373280000,10.075280029296875,0.0189602542668581,-0.0007991339080035686,0.12669497728347778
1701816367383233000,10.08523291015625,0.02869783528149128,-0.03440875932574272,0.18481047451496124
1701816367393186000,10.09518603515625,0.054140448570251465,-0.08892492204904556,0.23456338047981262
1701816367403138800,10.105138916015624,0.05439184978604317,-0.12041626870632172,0.23350849747657776
1701816367413091800,10.115091796875,0.04060494899749756,-0.13221582770347595,0.15455833077430725
1701816367423044900,10.125044921875,0.040471259504556656,-0.1113283783197403,0.05334276705980301
1701816367432996900,10.134996826171875,0.05765752121806145,-0.11431532353162766,-0.003006666898727417
1701816367442950000,10.144949951171874,0.08187364786863327,-0.12785589694976807,-0.034640759229660034
1701816367452903000,10.15490283203125,0.09579166769981384,-0.0992819145321846,-0.05849454179406166
1701816367462856000,10.16485595703125,0.10783155262470245,-0.0436178483068943,-0.04759928211569786
1701816367472809000,10.17480908203125,0.11340194940567017,-0.001830606022849679,-0.004507990553975105
1701816367482762000,10.184761962890626,0.10005844384431839,0.03166530281305313,0.043868329375982285
1701816367492714000,10.1947138671875,0.07461397349834442,0.051364362239837646,0.09220310300588608
1701816367502667300,10.204667236328126,0.04387470334768295,0.05091428756713867,0.13986675441265106
1701816367512620300,10.214620361328125,0.0018595918081700802,0.04135874658823013,0.16135630011558533
1701816367522573300,10.2245732421875,-0.04059199243783951,0.020418576896190643,0.14822478592395782
1701816367532526300,10.2345263671875,-0.07095013558864594,-0.026082471013069153,0.09702356904745102
1701816367542478300,10.244478271484375,-0.08427073806524277,-0.051918596029281616,0.02794703096151352
1701816367552431400,10.254431396484375,-0.08013725280761719,-0.052795328199863434,-0.03523581102490425
1701816367562384100,10.264384033203125,-0.07125081866979599,-0.026036951690912247,-0.06375453621149063
1701816367572337200,10.274337158203124,-0.0629604309797287,0.021485785022377968,-0.0512816347181797
1701816367582290200,10.284290283203125,-0.05827140063047409,0.07248584926128387,-0.021230259910225868
1701816367592243200,10.2942431640625,-0.056796394288539886,0.10122479498386383,0.015695320442318916
1701816367602195200,10.3041953125,-0.06352939456701279,0.11322499811649323,0.04442017525434494
1701816367612148200,10.314148193359374,-0.07019109278917313,0.09213913977146149,0.0648379921913147
1701816367622101200,10.324101318359375,-0.08004052937030792,0.04960126429796219,0.07428422570228577
1701816367632054300,10.33405419921875,-0.09015652537345886,0.0063102697022259235,0.06768186390399933
1701816367642007300,10.34400732421875,-0.09885016083717346,-0.021272622048854828,0.039863817393779755
1701816367651959300,10.353959228515626,-0.09730647504329681,-0.03891046345233917,0.012879665940999985
1701816367661912300,10.363912353515625,-0.07718522846698761,-0.0397442951798439,-0.020225023850798607
1701816367671865300,10.373865234375,-0.053955186158418655,-0.02293117344379425,-0.03696473315358162
1701816367681818400,10.383818359375,-0.029474344104528427,-0.00199393299408257,-0.034411296248435974
1701816367691771400,10.393771484375,-0.0032399455085396767,0.01314485538750887,-0.010507741943001747
1701816367701724400,10.403724365234375,0.004395336844027042,0.026505667716264725,0.025068094953894615
1701816367711676400,10.413676513671875,0.003471219213679433,0.03224175050854683,0.04451486095786095
1701816367721629200,10.423629150390624,0.0011888898443430662,0.034018613398075104,0.0466882660984993
1701816367731582200,10.433582275390625,-0.004418541677296162,0.03576407954096794,0.023049192503094673
1701816367741535200,10.44353515625,-0.004963957238942385,0.02785661816596985,-0.009393701329827309
1701816367751488300,10.45348828125,0.002589179901406169,0.013270456343889236,-0.0279135312885046
1701816367761441300,10.463441162109374,0.022262481972575188,0.0019898386672139168,-0.03679836913943291
1701816367771393300,10.473393310546875,0.0403825119137764,-0.00677232351154089,-0.0314498133957386
1701816367781346300,10.48334619140625,0.05119681358337402,-0.00554061122238636,-0.021136989817023277
1701816367791299300,10.49329931640625,0.055765435099601746,-0.004695996176451445,-0.011523166671395302
1701816367801252000,10.503252197265626,0.05689142271876335,-0.006234504282474518,-0.009236043319106102
1701816367811205000,10.513205078125,0.060614995658397675,-0.0004258998669683933,-0.02705802395939827
1701816367821157000,10.5231572265625,0.06956960260868073,0.007837623357772827,-0.049901288002729416
1701816367831110100,10.533110107421875,0.07309975475072861,0.011571958661079407,-0.06106757000088692
1701816367841063200,10.543063232421876,0.07844072580337524,0.012036679312586784,-0.05786644667387009
1701816367851016200,10.55301611328125,0.07975761592388153,0.017911352217197418,-0.05050783231854439
1701816367860969200,10.56296923828125,0.07860153913497925,0.028370652347803116,-0.041891708970069885
1701816367870922200,10.572922119140625,0.07189527899026871,0.03599787503480911,-0.03457622975111008
1701816367880874200,10.582874267578125,0.061373937875032425,0.036196012049913406,-0.029094109311699867
1701816367890827300,10.5928271484375,0.05037553980946541,0.02885054610669613,-0.028552766889333725
1701816367900780300,10.6027802734375,0.04569476842880249,0.020534560084342957,-0.03357628732919693
1701816367910733300,10.6127333984375,0.04737406596541405,0.013741478323936462,-0.03296191990375519
1701816367920686300,10.622686279296875,0.04461023584008217,0.015543639659881592,-0.03711778298020363
1701816367930639400,10.632639404296874,0.03933723643422127,0.028578663244843483,-0.04106491804122925
1701816367940591400,10.64259130859375,0.03921313211321831,0.04264894127845764,-0.037857405841350555
1701816367950544400,10.65254443359375,0.03327348455786705,0.05714356526732445,-0.03434133529663086
1701816367960497200,10.6624970703125,0.029947465285658836,0.06348402053117752,-0.030232612043619156
1701816367970450200,10.6724501953125,0.025298267602920532,0.06543698161840439,-0.02373720146715641
1701816367980403200,10.6824033203125,0.01427011750638485,0.057360149919986725,-0.0199991874396801
1701816367990356200,10.692356201171876,0.010210067965090275,0.03496268391609192,-0.015576048754155636
1701816368000308200,10.70230810546875,0.012935813516378403,0.012536736205220222,-0.013828749768435955
1701816368010261200,10.71226123046875,0.020171325653791428,-0.007681324612349272,-0.012605478055775166
1701816368020214300,10.72221435546875,0.01766981929540634,-0.01840241253376007,-0.012721325270831585
1701816368030167300,10.732167236328126,0.011338921263813972,-0.014339900575578213,-0.009368055500090122
1701816368040120000,10.7421201171875,0.00503921415656805,-0.001784694381058216,-0.0039666322991251945
1701816368050073000,10.752072998046875,0.0013609468005597591,0.005996685940772295,0.0007884618826210499
1701816368060025000,10.762025146484374,-0.002917155157774687,0.013605337589979172,-0.0006536399014294147
1701816368069978000,10.77197802734375,-0.003247964195907116,0.01463528536260128,-0.003440698143094778
1701816368079931100,10.78193115234375,-0.006337231025099754,0.012702098116278648,-0.006052193697541952
1701816368089884200,10.79188427734375,-0.006908434443175793,0.011337922886013985,-0.01240004412829876
1701816368099837200,10.801837158203124,-0.00719072949141264,0.011697715148329735,-0.017497600987553596
1701816368109789200,10.8117890625,-0.0032543414272367954,0.0070719290524721146,-0.017687935382127762
1701816368119742200,10.8217421875,-0.0024743014946579933,0.007258350029587746,-0.016917750239372253
1701816368129695200,10.8316953125,-0.004224308300763369,0.008137831464409828,-0.009685197845101357
1701816368139648300,10.841648193359376,-0.007664313539862633,0.011432959698140621,-0.00783589854836464
1701816368149601300,10.851601318359375,-0.009498625062406063,0.015802977606654167,-0.008627676405012608
1701816368159554300,10.86155419921875,-0.009172653779387474,0.02027708850800991,-0.012483134865760803
1701816368169506300,10.87150634765625,-0.01116403378546238,0.02640506997704506,-0.012831654399633408
1701816368179459300,10.881459228515626,-0.015573695302009583,0.030829647555947304,-0.011169043369591236
1701816368189412400,10.891412353515625,-0.017520258203148842,0.035176441073417664,-0.01408238336443901
1701816368199365000,10.901365234375,-0.015746593475341797,0.029125209897756577,-0.01811414398252964
1701816368209318100,10.911318115234375,-0.012163846753537655,0.015282794833183289,-0.017322015017271042
1701816368219271200,10.921271240234375,-0.008737689815461636,0.00565307168290019,-0.012604491785168648
1701816368229223200,10.93122314453125,-0.010451756417751312,0.00022776611149311066,-0.00988081842660904
1701816368239176200,10.94117626953125,-0.009152133949100971,0.0006072665564715862,-0.004386450629681349
1701816368249129200,10.951129150390624,-0.015717005357146263,0.005331769585609436,0.0018167083617299795
1701816368259082200,10.961082275390625,-0.01835193671286106,0.008373099379241467,0.006918259896337986
1701816368269035300,10.97103515625,-0.014386371709406376,0.009349344298243523,0.009230990894138813
1701816368278987300,10.9809873046875,-0.012760777957737446,0.013055932708084583,0.006830683909356594
1701816368288940300,10.990940185546876,-0.015600593760609627,0.007563106250017881,0.007898219861090183
1701816368298893300,11.000893310546875,-0.01856868714094162,0.00211081700399518,0.010168299078941345
1701816368308846300,11.010846435546876,-0.020384933799505234,-0.0016086793038994074,0.013933660462498665
1701816368318799400,11.02079931640625,-0.02115298993885517,-0.0005892212502658367,0.012363194487988949
1701816368328752400,11.03075244140625,-0.018366891890764236,-0.003085477976128459,0.01229502260684967
1701816368338704400,11.040704345703125,-0.015704531222581863,-0.0019445798825472593,0.01460984256118536
1701816368348657200,11.0506572265625,-0.011613012291491032,0.002390855923295021,0.01630760170519352
1701816368358610200,11.060610107421875,-0.01145535334944725,0.009315075352787971,0.01471156906336546
1701816368368563200,11.070563232421875,-0.010873260907828808,0.006609001662582159,0.014046331867575645
1701816368378516200,11.08051611328125,-0.010125711560249329,0.0006472491659224033,0.01139595452696085
1701816368388469200,11.09046923828125,-0.011611148715019226,-0.005056674126535654,0.0036256290040910244
1701816368398421200,11.100421142578124,-0.011049487628042698,-0.0011439577210694551,-0.005089299753308296
1701816368408374300,11.110374267578125,-0.008960925973951817,0.0037656747736036777,-0.010335573926568031
1701816368418327300,11.120327392578124,-0.00865359790623188,0.007437108550220728,0.0026097861118614674
1701816368428280300,11.1302802734375,-0.016166677698493004,0.015161281451582909,0.024541277438402176
1701816368438233000,11.140233154296874,-0.0243388544768095,0.02514547109603882,0.04724286124110222
1701816368448186000,11.15018603515625,-0.03507677838206291,0.032432496547698975,0.0741879865527153
1701816368458138000,11.16013818359375,-0.05010899156332016,0.030825013294816017,0.10101214796304703
1701816368468091100,11.170091064453125,-0.07123546302318573,0.02747947908937931,0.1266738772392273
1701816368478044200,11.180044189453126,-0.09131170809268951,0.016978902742266655,0.1469288021326065
1701816368487997200,11.1899970703125,-0.10480508208274841,0.0056175063364207745,0.15916597843170166
1701816368497950200,11.1999501953125,-0.11260601133108139,-0.002483829390257597,0.1552324891090393
1701816368507902500,11.20990234375,-0.11162065714597702,-0.012996145524084568,0.1346021592617035
1701816368517855500,11.21985546875,-0.10394089668989182,-0.023766502737998962,0.11078152060508728
1701816368527808500,11.22980859375,-0.09113581478595734,-0.021041253581643105,0.09282433986663818
1701816368537761300,11.23976123046875,-0.07594460994005203,-0.03047017566859722,0.08838404715061188
1701816368547714300,11.24971435546875,-0.07001525163650513,-0.03288079425692558,0.08048272132873535
1701816368557667300,11.259667236328125,-0.07029221951961517,-0.025594383478164673,0.0771271362900734
1701816368567619300,11.269619384765624,-0.07626274228096008,-0.017008133232593536,0.07746291160583496
1701816368577572400,11.279572265625,-0.08518726378679276,-0.01034463755786419,0.08520525693893433
1701816368587525400,11.289525390625,-0.09165021777153015,0.0034648184664547443,0.09089039266109467
1701816368597478400,11.299478515625,-0.0952148586511612,0.010097421705722809,0.09271305799484253
1701816368607431400,11.309431396484374,-0.09599161893129349,0.00952925719320774,0.0921144112944603
1701816368617384400,11.319384521484375,-0.09486190229654312,0.005276721436530352,0.08696305751800537
1701816368627336200,11.329336181640626,-0.08484435081481934,0.0028287791647017,0.07433805614709854
1701816368637289200,11.339289306640625,-0.07451181858778,-0.0010093683376908302,0.05969945713877678
1701816368647242200,11.3492421875,-0.06111512705683708,-0.0018055224791169167,0.038909606635570526
1701816368657195300,11.3591953125,-0.045067716389894485,-0.0012092406395822763,0.019419260323047638
1701816368667148300,11.369148193359376,-0.0292041078209877,-0.0022078207693994045,0.004319341387599707
1701816368677101300,11.379101318359375,-0.016238242387771606,-0.002890655305236578,-0.00605367124080658
1701816368687053600,11.389053466796875,-0.008610822260379791,-0.002051343210041523,-0.012571221217513084
1701816368697006300,11.39900634765625,-0.005385201424360275,0.0001843804493546486,-0.01428496465086937
1701816368706959400,11.40895947265625,-0.002877298276871443,0.002429758198559284,-0.015924226492643356
1701816368716912400,11.418912353515625,-0.0017723528435453773,0.005026340484619141,-0.016774572432041168
1701816368726865400,11.428865478515625,-0.0007202394772320986,0.006292331963777542,-0.015568427741527557
1701816368736817400,11.4388173828125,-0.002831859979778528,0.004735980182886124,-0.01221204549074173
1701816368746770400,11.4487705078125,-0.002401837846264243,0.0014135511592030525,-0.01070190779864788
1701816368756723500,11.458723388671874,0.006379136815667152,-0.0018690612632781267,-0.010377801023423672
1701816368766676500,11.468676513671875,0.016610635444521904,-0.000020636245608329773,-0.009725863113999367
1701816368776629200,11.478629150390624,0.02849126234650612,0.0015381118282675743,-0.010822552256286144
1701816368786582300,11.488582275390625,0.03649844229221344,0.003587177488952875,-0.013230103999376297
1701816368796534300,11.4985341796875,0.03963218256831169,0.003968541976064444,-0.018437381833791733
1701816368806487300,11.5084873046875,0.035134486854076385,0.006824179086834192,-0.01808873564004898
1701816368816440300,11.5184404296875,0.024132970720529556,0.007679586764425039,-0.012219926342368126
1701816368826393300,11.528393310546875,0.013043845072388649,0.004720402415841818,-0.004005619790405035
1701816368836346400,11.538346435546876,0.008160673081874847,0.006965713109821081,-0.0007336600683629513
1701816368846299400,11.54829931640625,0.006564140319824219,0.006659656763076782,-0.00042409589514136314
1701816368856251100,11.558251220703125,0.0030682089272886515,0.004813553765416145,0.002481413073837757
1701816368866204200,11.5682041015625,-0.00252916244789958,0.003001287579536438,0.0038261443842202425
1701816368876157200,11.5781572265625,-0.01349978893995285,0.004839667119085789,0.0052472073584795
1701816368886110200,11.588110107421874,-0.020804300904273987,0.0017292806878685951,0.009016106836497784
1701816368896063200,11.598063232421875,-0.02262909896671772,-0.0021056714467704296,0.010632911697030067
1701816368906015500,11.608015380859374,-0.016880998387932777,0.00021081231534481049,0.01005331240594387
1701816368915968500,11.617968505859375,-0.012765615247189999,0.0009692804887890816,0.007361389230936766
1701816368925921500,11.627921630859374,-0.009049497544765472,-0.00013797637075185776,0.010009163990616798
1701816368935874300,11.637874267578125,-0.0067466627806425095,0.00027774320915341377,0.012780716642737389
1701816368945827300,11.647827392578124,-0.006330353207886219,0.0039168670773506165,0.016262471675872803
1701816368955780400,11.6577802734375,-0.00654740072786808,0.003565596416592598,0.024805361405014992
1701816368965732400,11.667732421875,-0.010972049087285995,-0.0009305528365075588,0.03512529656291008
1701816368975685400,11.677685302734375,-0.022356528788805008,-0.005896016955375671,0.043402932584285736
1701816368985638400,11.687638427734376,-0.036089226603507996,-0.009544557891786098,0.04507027938961983
1701816368995591400,11.69759130859375,-0.04073964059352875,-0.011960577219724655,0.04527880251407623
1701816369005544400,11.70754443359375,-0.04336390271782875,-0.015686750411987305,0.04373500496149063
1701816369015497200,11.717497314453125,-0.0457753948867321,-0.013527726754546165,0.043994396924972534
1701816369025449200,11.72744921875,-0.04534783586859703,-0.008436099626123905,0.04305700585246086
1701816369035402200,11.73740234375,-0.04316084831953049,-0.005788651295006275,0.04522828012704849
1701816369045355300,11.747355224609375,-0.03364820033311844,-0.006961331702768803,0.04069254919886589
1701816369055308300,11.757308349609374,-0.014406062662601471,-0.012647180818021297,0.03761792927980423
1701816369065261300,11.76726123046875,0.001223912462592125,-0.018220040947198868,0.03268065303564072
1701816369075213300,11.77721337890625,0.004215973895043135,-0.02239188179373741,0.03439360111951828
1701816369085166300,11.787166259765625,-0.008256365545094013,-0.045183755457401276,0.043970298022031784
1701816369095119400,11.797119384765624,-0.013639413751661777,-0.07826340943574905,0.043828085064888
1701816369105072400,11.807072265625,-0.01685815304517746,-0.10263452678918839,0.02945636585354805
1701816369115025400,11.817025390625,-0.017917025834321976,-0.11668935418128967,0.018301714211702347
1701816369124978200,11.826978271484375,-0.018882112577557564,-0.10676881670951843,0.017127763479948044
1701816369134930400,11.836930419921876,-0.031354229897260666,-0.07245451956987381,0.04296575114130974
1701816369144883500,11.846883544921875,-0.05749452859163284,-0.015454614534974098,0.10290448367595673
1701816369154836500,11.85683642578125,-0.0972675085067749,0.039135660976171494,0.19056029617786407
1701816369164789500,11.86678955078125,-0.13144028186798096,0.08575384318828583,0.2771593928337097
1701816369174742300,11.8767421875,-0.16702118515968323,0.12779609858989716,0.34315225481987
1701816369184695300,11.8866953125,-0.2090042233467102,0.19080011546611786,0.40827563405036926
1701816369194647300,11.896647216796875,-0.24745893478393555,0.2414206713438034,0.47891199588775635
1701816369204600300,11.906600341796874,-0.2894478738307953,0.2539891004562378,0.5471010804176331
1701816369214553300,11.91655322265625,-0.3179716467857361,0.24684599041938782,0.5917854905128479
1701816369224506400,11.92650634765625,-0.3595384955406189,0.22411474585533142,0.5900735855102539
1701816369234459400,11.93645947265625,-0.37793081998825073,0.1807669997215271,0.553083062171936
