time,seconds_elapsed,z,y,x
1701815855620235500,0.015235595703125,-0.923004150390625,-0.2863922119140625,-0.2513427734375
1701815855630188500,0.0251884765625,-0.9203033447265625,-0.28558349609375,-0.249176025390625
1701815855640141600,0.0351416015625,-0.92059326171875,-0.2852020263671875,-0.24920654296875
1701815855650094600,0.045094482421875,-0.91790771484375,-0.28466796875,-0.25335693359375
1701815855660046600,0.055046630859375,-0.9169158935546875,-0.2844085693359375,-0.2543487548828125
1701815855669999600,0.06499951171875,-0.918121337890625,-0.2811431884765625,-0.254302978515625
1701815855679952600,0.07495263671875,-0.9192657470703125,-0.2814178466796875,-0.2541351318359375
1701815855689905700,0.08490576171875,-0.9210968017578125,-0.2816925048828125,-0.255401611328125
1701815855699858400,0.0948583984375,-0.9230499267578125,-0.2825469970703125,-0.2574462890625
1701815855709811500,0.1048115234375,-0.9216766357421875,-0.2819671630859375,-0.2574310302734375
1701815855719764500,0.114764404296875,-0.92205810546875,-0.2802276611328125,-0.25787353515625
1701815855729716500,0.124716552734375,-0.92242431640625,-0.2809906005859375,-0.2562713623046875
1701815855739669500,0.13466943359375,-0.921417236328125,-0.2809906005859375,-0.2561492919921875
1701815855749622500,0.14462255859375,-0.921478271484375,-0.278961181640625,-0.2539825439453125
1701815855759575600,0.154575439453125,-0.923614501953125,-0.2788238525390625,-0.2530975341796875
1701815855769528600,0.164528564453125,-0.9278411865234375,-0.278900146484375,-0.252899169921875
1701815855779481600,0.174481689453125,-0.9315032958984375,-0.28045654296875,-0.2497711181640625
1701815855789434400,0.184434326171875,-0.93359375,-0.2808990478515625,-0.249755859375
1701815855799387400,0.194387451171875,-0.9354400634765625,-0.2799072265625,-0.250732421875
1701815855809339600,0.204339599609375,-0.9400482177734375,-0.2817230224609375,-0.2494354248046875
1701815855819292700,0.214292724609375,-0.939483642578125,-0.283111572265625,-0.251312255859375
1701815855829245400,0.224245361328125,-0.934051513671875,-0.2840118408203125,-0.2521820068359375
1701815855839198500,0.234198486328125,-0.931671142578125,-0.2843475341796875,-0.2519378662109375
1701815855849151500,0.2441513671875,-0.927978515625,-0.2857666015625,-0.24822998046875
1701815855859104500,0.2541044921875,-0.925872802734375,-0.2841033935546875,-0.244903564453125
1701815855869057500,0.2640576171875,-0.9235076904296875,-0.283447265625,-0.2418212890625
1701815855879009500,0.274009521484375,-0.9279632568359375,-0.2840118408203125,-0.24114990234375
1701815855888962600,0.283962646484375,-0.931610107421875,-0.2873382568359375,-0.2393646240234375
1701815855898915600,0.29391552734375,-0.9310760498046875,-0.28826904296875,-0.2428436279296875
1701815855908868600,0.30386865234375,-0.9276580810546875,-0.2880706787109375,-0.2420196533203125
1701815855918821600,0.313821533203125,-0.9246826171875,-0.2931976318359375,-0.2422027587890625
1701815855928774700,0.323774658203125,-0.921234130859375,-0.2947998046875,-0.2399749755859375
1701815855938727700,0.333727783203125,-0.91534423828125,-0.2967376708984375,-0.2411041259765625
1701815855948680700,0.3436806640625,-0.9100494384765625,-0.2989044189453125,-0.2382965087890625
1701815855958632400,0.353632568359375,-0.905914306640625,-0.298095703125,-0.2340545654296875
1701815855968585500,0.36358544921875,-0.9035491943359375,-0.298248291015625,-0.2313995361328125
1701815855978538500,0.37353857421875,-0.9008636474609375,-0.300689697265625,-0.2315673828125
1701815855988491500,0.383491455078125,-0.90228271484375,-0.299957275390625,-0.229736328125
1701815855998444500,0.393444580078125,-0.9020843505859375,-0.2988739013671875,-0.228912353515625
1701815856008397600,0.4033974609375,-0.9025726318359375,-0.2970428466796875,-0.23077392578125
1701815856018350600,0.4133505859375,-0.9058380126953125,-0.293548583984375,-0.2314605712890625
1701815856028303600,0.4233037109375,-0.9097747802734375,-0.2936553955078125,-0.2317047119140625
1701815856038255400,0.43325537109375,-0.9181976318359375,-0.2926788330078125,-0.2346649169921875
1701815856048208400,0.44320849609375,-0.92401123046875,-0.2922210693359375,-0.2349700927734375
1701815856058161400,0.453161376953125,-0.9251861572265625,-0.2908477783203125,-0.23583984375
1701815856068114400,0.463114501953125,-0.925567626953125,-0.288909912109375,-0.23797607421875
1701815856078067500,0.4730673828125,-0.925048828125,-0.2864837646484375,-0.2369232177734375
1701815856088020500,0.4830205078125,-0.925933837890625,-0.2869720458984375,-0.2357940673828125
1701815856097973200,0.49297314453125,-0.9259490966796875,-0.285186767578125,-0.23516845703125
1701815856107926300,0.50292626953125,-0.92645263671875,-0.2839813232421875,-0.2341156005859375
1701815856117878500,0.51287841796875,-0.92999267578125,-0.2828369140625,-0.230621337890625
1701815856127831600,0.52283154296875,-0.928924560546875,-0.2799835205078125,-0.2309112548828125
1701815856137784600,0.53278466796875,-0.9304351806640625,-0.280029296875,-0.23321533203125
1701815856147737600,0.542737548828125,-0.9329376220703125,-0.2843475341796875,-0.2366485595703125
1701815856157690600,0.552690673828125,-0.9362945556640625,-0.281768798828125,-0.2386932373046875
1701815856167643600,0.5626435546875,-0.9364471435546875,-0.2770233154296875,-0.2418365478515625
1701815856177596700,0.5725966796875,-0.9355926513671875,-0.2771453857421875,-0.2447509765625
1701815856187549400,0.582549560546875,-0.932586669921875,-0.2735137939453125,-0.244384765625
1701815856197501400,0.59250146484375,-0.933837890625,-0.2673187255859375,-0.24554443359375
1701815856207454500,0.602454345703125,-0.935272216796875,-0.26361083984375,-0.2473297119140625
1701815856217407500,0.612407470703125,-0.9360198974609375,-0.262451171875,-0.247955322265625
1701815856227360500,0.622360595703125,-0.9382781982421875,-0.265838623046875,-0.2466278076171875
1701815856237313500,0.6323134765625,-0.939727783203125,-0.266754150390625,-0.243804931640625
1701815856247266600,0.6422666015625,-0.93487548828125,-0.267120361328125,-0.2373046875
1701815856257219600,0.652219482421875,-0.937347412109375,-0.27093505859375,-0.2317352294921875
1701815856267171300,0.66217138671875,-0.9384613037109375,-0.2719879150390625,-0.2278594970703125
1701815856277124400,0.672124267578125,-0.9420318603515625,-0.2723846435546875,-0.2259674072265625
1701815856287077400,0.682077392578125,-0.9450225830078125,-0.271148681640625,-0.22503662109375
1701815856297030400,0.692030517578125,-0.9474029541015625,-0.273895263671875,-0.222808837890625
1701815856306983400,0.7019833984375,-0.94378662109375,-0.2780303955078125,-0.2274627685546875
1701815856316936400,0.7119365234375,-0.9530792236328125,-0.2691802978515625,-0.21673583984375
1701815856326889500,0.721889404296875,-0.9524688720703125,-0.2715911865234375,-0.2162322998046875
1701815856336842500,0.731842529296875,-0.948089599609375,-0.278961181640625,-0.2171783447265625
1701815856346794200,0.741794189453125,-0.946197509765625,-0.2780609130859375,-0.217864990234375
1701815856356747300,0.751747314453125,-0.9433441162109375,-0.2738189697265625,-0.2174835205078125
1701815856366700300,0.7617001953125,-0.932861328125,-0.2764892578125,-0.2235565185546875
1701815856376653300,0.7716533203125,-0.931060791015625,-0.275970458984375,-0.2272491455078125
1701815856386606300,0.7816064453125,-0.927764892578125,-0.2755279541015625,-0.2265625
1701815856396559400,0.791559326171875,-0.9237060546875,-0.27276611328125,-0.2264862060546875
1701815856406512400,0.801512451171875,-0.9228057861328125,-0.2732696533203125,-0.2259521484375
1701815856416465400,0.81146533203125,-0.9242401123046875,-0.2752685546875,-0.2237548828125
1701815856426417400,0.82141748046875,-0.9282379150390625,-0.2772979736328125,-0.223297119140625
1701815856436370400,0.831370361328125,-0.9286956787109375,-0.2762603759765625,-0.223541259765625
1701815856446323500,0.841323486328125,-0.9287872314453125,-0.275421142578125,-0.221588134765625
1701815856456276500,0.8512763671875,-0.9310150146484375,-0.275054931640625,-0.2191009521484375
1701815856466229500,0.8612294921875,-0.931365966796875,-0.2742919921875,-0.2175445556640625
1701815856476182500,0.8711826171875,-0.930633544921875,-0.2723236083984375,-0.2166748046875
1701815856486135600,0.881135498046875,-0.928314208984375,-0.272705078125,-0.2176666259765625
1701815856496088600,0.891088623046875,-0.929046630859375,-0.27142333984375,-0.2166748046875
1701815856506041600,0.90104150390625,-0.9306640625,-0.271575927734375,-0.216400146484375
1701815856515994600,0.91099462890625,-0.9326324462890625,-0.2698974609375,-0.2173309326171875
1701815856525947600,0.92094775390625,-0.93634033203125,-0.2707672119140625,-0.21746826171875
1701815856535900400,0.930900390625,-0.9389190673828125,-0.268585205078125,-0.2183074951171875
1701815856545853400,0.940853515625,-0.94317626953125,-0.26861572265625,-0.2130126953125
1701815856555805400,0.950805419921875,-0.9440460205078125,-0.2689056396484375,-0.2162017822265625
1701815856565758500,0.960758544921875,-0.9451904296875,-0.2662200927734375,-0.214202880859375
1701815856575711500,0.97071142578125,-0.94720458984375,-0.265899658203125,-0.210235595703125
1701815856585664500,0.98066455078125,-0.9486541748046875,-0.2698211669921875,-0.214691162109375
1701815856595617500,0.990617431640625,-0.948699951171875,-0.26953125,-0.2147979736328125
1701815856605570600,1.000570556640625,-0.949462890625,-0.2656402587890625,-0.2138519287109375
1701815856615523600,1.010523681640625,-0.952239990234375,-0.265899658203125,-0.2151336669921875
1701815856625476400,1.020476318359375,-0.95233154296875,-0.2673797607421875,-0.2162933349609375
1701815856635428400,1.030428466796875,-0.9537811279296875,-0.26617431640625,-0.216400146484375
1701815856645381400,1.04038134765625,-0.9521331787109375,-0.264617919921875,-0.2141571044921875
1701815856655334400,1.05033447265625,-0.949188232421875,-0.2642974853515625,-0.212799072265625
1701815856665287400,1.060287353515625,-0.94512939453125,-0.2645111083984375,-0.2111053466796875
1701815856675240400,1.070240478515625,-0.9437255859375,-0.263031005859375,-0.2091217041015625
1701815856685193500,1.080193359375,-0.941864013671875,-0.2664642333984375,-0.20989990234375
1701815856695146500,1.090146484375,-0.94189453125,-0.2678375244140625,-0.212249755859375
1701815856705098500,1.100098388671875,-0.9400634765625,-0.2673797607421875,-0.21221923828125
1701815856715051500,1.110051513671875,-0.936187744140625,-0.266326904296875,-0.2111358642578125
1701815856725004500,1.120004638671875,-0.9345550537109375,-0.2650299072265625,-0.2122802734375
1701815856734957600,1.12995751953125,-0.934600830078125,-0.263824462890625,-0.2122955322265625
1701815856744910600,1.13991064453125,-0.9329681396484375,-0.261993408203125,-0.213226318359375
1701815856754863600,1.149863525390625,-0.93426513671875,-0.26129150390625,-0.21343994140625
1701815856764816600,1.159816650390625,-0.9360809326171875,-0.262786865234375,-0.211212158203125
1701815856774769700,1.169769775390625,-0.9388275146484375,-0.2641754150390625,-0.210418701171875
1701815856784721400,1.179721435546875,-0.9423980712890625,-0.2668304443359375,-0.2084808349609375
1701815856794674400,1.18967431640625,-0.9427337646484375,-0.2676544189453125,-0.2056427001953125
1701815856804626400,1.19962646484375,-0.9419403076171875,-0.26873779296875,-0.20697021484375
1701815856814579500,1.209579345703125,-0.9411468505859375,-0.2679290771484375,-0.20709228515625
1701815856824532500,1.219532470703125,-0.9387664794921875,-0.268646240234375,-0.206573486328125
1701815856834485500,1.229485595703125,-0.9391937255859375,-0.269500732421875,-0.207000732421875
1701815856844438500,1.2394384765625,-0.93853759765625,-0.2651214599609375,-0.205047607421875
1701815856854391600,1.2493916015625,-0.94146728515625,-0.2643890380859375,-0.2023468017578125
1701815856864344300,1.25934423828125,-0.946868896484375,-0.2648773193359375,-0.202545166015625
1701815856874297300,1.26929736328125,-0.94952392578125,-0.2640380859375,-0.2031707763671875
1701815856884249300,1.279249267578125,-0.9496917724609375,-0.264373779296875,-0.2041168212890625
1701815856894202400,1.289202392578125,-0.94964599609375,-0.263885498046875,-0.206817626953125
1701815856904155400,1.2991552734375,-0.947906494140625,-0.264556884765625,-0.2071533203125
1701815856914108400,1.3091083984375,-0.9440155029296875,-0.264007568359375,-0.20697021484375
1701815856924061400,1.3190615234375,-0.940216064453125,-0.2643890380859375,-0.20538330078125
1701815856934014500,1.329014404296875,-0.9371490478515625,-0.264862060546875,-0.201812744140625
1701815856943967200,1.33896728515625,-0.93853759765625,-0.2635955810546875,-0.2005462646484375
1701815856953920300,1.348920166015625,-0.9415283203125,-0.264068603515625,-0.1988983154296875
1701815856963872500,1.35887255859375,-0.9510040283203125,-0.2642974853515625,-0.202301025390625
1701815856973825500,1.368825439453125,-0.947021484375,-0.263031005859375,-0.2016143798828125
1701815856983778600,1.378778564453125,-0.9453277587890625,-0.2599639892578125,-0.2067108154296875
1701815856993731600,1.388731689453125,-0.9489288330078125,-0.262359619140625,-0.2052001953125
1701815857003684600,1.3986845703125,-0.946136474609375,-0.2629241943359375,-0.205963134765625
1701815857013637600,1.4086376953125,-0.944091796875,-0.258514404296875,-0.20477294921875
1701815857023590700,1.418590576171875,-0.9422454833984375,-0.2598419189453125,-0.2039947509765625
1701815857033543400,1.42854345703125,-0.9427032470703125,-0.261932373046875,-0.202972412109375
1701815857043495400,1.438495361328125,-0.9443817138671875,-0.2611541748046875,-0.2049102783203125
1701815857053448400,1.448448486328125,-0.9461669921875,-0.260833740234375,-0.2052764892578125
1701815857063401500,1.4584013671875,-0.9448699951171875,-0.25921630859375,-0.206329345703125
1701815857073354500,1.4683544921875,-0.9471282958984375,-0.2608642578125,-0.20562744140625
1701815857083306800,1.478306640625,-0.946319580078125,-0.26226806640625,-0.205810546875
1701815857093259800,1.488259765625,-0.9457550048828125,-0.26470947265625,-0.20294189453125
1701815857103212800,1.498212890625,-0.941070556640625,-0.26654052734375,-0.201171875
1701815857113165800,1.508165771484375,-0.936737060546875,-0.2626190185546875,-0.20062255859375
1701815857123117600,1.51811767578125,-0.9348907470703125,-0.26251220703125,-0.197723388671875
1701815857133070600,1.528070556640625,-0.9388275146484375,-0.263763427734375,-0.198944091796875
1701815857143023600,1.538023681640625,-0.9444580078125,-0.26544189453125,-0.200927734375
1701815857152976600,1.5479765625,-0.945648193359375,-0.2676849365234375,-0.2003021240234375
1701815857162929700,1.5579296875,-0.94708251953125,-0.2658843994140625,-0.2023468017578125
1701815857172882700,1.567882568359375,-0.9461517333984375,-0.2653656005859375,-0.203216552734375
1701815857182835700,1.577835693359375,-0.9428558349609375,-0.265533447265625,-0.20404052734375
1701815857192788700,1.587788818359375,-0.939544677734375,-0.261993408203125,-0.203338623046875
1701815857202741000,1.597740966796875,-0.9372100830078125,-0.2605133056640625,-0.2038726806640625
1701815857212693800,1.60769384765625,-0.9378662109375,-0.260955810546875,-0.2030181884765625
1701815857222646800,1.617646728515625,-0.94256591796875,-0.26080322265625,-0.2005157470703125
1701815857232599800,1.627599853515625,-0.9454345703125,-0.2607269287109375,-0.197418212890625
1701815857242552800,1.637552734375,-0.947235107421875,-0.2603607177734375,-0.1979827880859375
1701815857252505900,1.647505859375,-0.9482421875,-0.2591400146484375,-0.1941986083984375
1701815857262459000,1.657458984375,-0.9446563720703125,-0.2618255615234375,-0.19677734375
1701815857272412000,1.667411865234375,-0.9465789794921875,-0.2614593505859375,-0.1959381103515625
1701815857282364000,1.677364013671875,-0.9496002197265625,-0.261474609375,-0.1942901611328125
1701815857292316700,1.687316650390625,-0.9454345703125,-0.2607269287109375,-0.1908111572265625
1701815857302269700,1.697269775390625,-0.9468841552734375,-0.2602386474609375,-0.1909942626953125
1701815857312222700,1.70722265625,-0.949554443359375,-0.2597808837890625,-0.1904754638671875
1701815857322175700,1.71717578125,-0.9497222900390625,-0.2601318359375,-0.1915435791015625
1701815857332128800,1.727128662109375,-0.9483795166015625,-0.2597198486328125,-0.192535400390625
1701815857342081800,1.737081787109375,-0.949188232421875,-0.2583160400390625,-0.1930999755859375
1701815857352034800,1.747034912109375,-0.949127197265625,-0.25823974609375,-0.19427490234375
1701815857361986800,1.75698681640625,-0.950714111328125,-0.2593841552734375,-0.1990509033203125
1701815857371939800,1.76693994140625,-0.9512176513671875,-0.26190185546875,-0.199554443359375
1701815857381892600,1.776892578125,-0.9500732421875,-0.261749267578125,-0.200653076171875
1701815857391845600,1.786845703125,-0.949798583984375,-0.257354736328125,-0.2021636962890625
1701815857401798700,1.796798583984375,-0.9493865966796875,-0.2575836181640625,-0.2047119140625
1701815857411751700,1.806751708984375,-0.9478607177734375,-0.25634765625,-0.204071044921875
1701815857421704700,1.81670458984375,-0.947265625,-0.2574310302734375,-0.199737548828125
1701815857431657700,1.82665771484375,-0.9484100341796875,-0.260101318359375,-0.1977996826171875
1701815857441610000,1.83660986328125,-0.951263427734375,-0.2615203857421875,-0.19708251953125
1701815857451563000,1.84656298828125,-0.94964599609375,-0.262664794921875,-0.198333740234375
1701815857461515800,1.856515869140625,-0.9485015869140625,-0.2620391845703125,-0.19976806640625
1701815857471468800,1.86646875,-0.9471588134765625,-0.2639007568359375,-0.1994476318359375
1701815857481421800,1.876421875,-0.9448699951171875,-0.2631072998046875,-0.2018280029296875
1701815857491374800,1.886374755859375,-0.94036865234375,-0.2651824951171875,-0.199951171875
1701815857501328000,1.896327880859375,-0.9368743896484375,-0.26654052734375,-0.2001953125
1701815857511281000,1.906281005859375,-0.935791015625,-0.269195556640625,-0.197021484375
1701815857521233000,1.91623291015625,-0.929840087890625,-0.266845703125,-0.1931610107421875
1701815857531186000,1.92618603515625,-0.92755126953125,-0.265655517578125,-0.190155029296875
1701815857541139000,1.936138916015625,-0.9269866943359375,-0.2703857421875,-0.1903839111328125
1701815857551092000,1.946092041015625,-0.931884765625,-0.2745361328125,-0.1911773681640625
1701815857561044700,1.956044677734375,-0.935546875,-0.2750244140625,-0.1938018798828125
1701815857570997800,1.965997802734375,-0.935821533203125,-0.274200439453125,-0.197418212890625
1701815857580950800,1.97595068359375,-0.940460205078125,-0.2784881591796875,-0.1951446533203125
1701815857590903800,1.98590380859375,-0.9287109375,-0.2786102294921875,-0.1833343505859375
1701815857600855800,1.995855712890625,-0.91864013671875,-0.2779388427734375,-0.1727294921875
1701815857610808800,2.005808837890625,-0.9188995361328125,-0.2665557861328125,-0.1528778076171875
1701815857620761900,2.015761962890625,-0.919891357421875,-0.2716064453125,-0.1483154296875
1701815857630715000,2.02571484375,-0.914031982421875,-0.2703399658203125,-0.167449951171875
1701815857640667600,2.035667724609375,-0.9303436279296875,-0.2507781982421875,-0.1778106689453125
1701815857650620700,2.04562060546875,-0.948486328125,-0.25421142578125,-0.18585205078125
1701815857660573700,2.05557373046875,-0.9658050537109375,-0.2619171142578125,-0.1851806640625
1701815857670526700,2.065526611328125,-0.973907470703125,-0.267242431640625,-0.17724609375
1701815857680478700,2.075478759765625,-0.97991943359375,-0.2811737060546875,-0.1732177734375
1701815857690431700,2.085431640625,-0.9767913818359375,-0.283905029296875,-0.1815338134765625
1701815857700384800,2.095384765625,-0.8545074462890625,-0.2724761962890625,-0.1928558349609375
1701815857710337800,2.105337890625,-0.6910247802734375,-0.2437744140625,-0.20062255859375
1701815857720290800,2.115290771484375,-0.8199310302734375,-0.22625732421875,-0.2592010498046875
1701815857730243600,2.12524365234375,-0.8965911865234375,-0.1819915771484375,-0.2415924072265625
1701815857740196600,2.135196533203125,-0.9145050048828125,-0.100738525390625,-0.183807373046875
1701815857750149600,2.145149658203125,-0.9805450439453125,-0.073089599609375,-0.1962432861328125
1701815857760102700,2.1551025390625,-1.0900115966796875,-0.169677734375,-0.243072509765625
1701815857770055000,2.165054931640625,-1.1340484619140625,-0.23846435546875,-0.2466583251953125
1701815857780008000,2.175008056640625,-1.153228759765625,-0.2835693359375,-0.257904052734375
1701815857789961000,2.1849609375,-1.1489105224609375,-0.2913360595703125,-0.266357421875
1701815857799914000,2.1949140625,-1.1060791015625,-0.277679443359375,-0.25823974609375
1701815857809867000,2.204866943359375,-1.0447845458984375,-0.256591796875,-0.248687744140625
1701815857819819800,2.21481982421875,-0.98388671875,-0.2342376708984375,-0.2483978271484375
1701815857829772800,2.224772705078125,-0.9350738525390625,-0.2234954833984375,-0.2472076416015625
1701815857839725800,2.234725830078125,-0.901458740234375,-0.2132110595703125,-0.2491912841796875
1701815857849677800,2.244677734375,-0.895477294921875,-0.208343505859375,-0.2521209716796875
1701815857859630800,2.254630859375,-0.8979339599609375,-0.208587646484375,-0.2592315673828125
1701815857869584000,2.264583984375,-0.9046783447265625,-0.20733642578125,-0.272308349609375
1701815857879537000,2.274536865234375,-0.904266357421875,-0.2130889892578125,-0.28448486328125
1701815857889490000,2.284489990234375,-0.91168212890625,-0.220428466796875,-0.304168701171875
1701815857899443000,2.29444287109375,-0.9189910888671875,-0.222900390625,-0.32293701171875
1701815857909395700,2.304395751953125,-0.9410552978515625,-0.22296142578125,-0.3219146728515625
1701815857919347700,2.31434765625,-0.9645538330078125,-0.2522735595703125,-0.32769775390625
1701815857929300700,2.32430078125,-0.9799041748046875,-0.2694854736328125,-0.3125457763671875
1701815857939253800,2.334253662109375,-0.983428955078125,-0.2699432373046875,-0.3071746826171875
1701815857949206800,2.344206787109375,-1.0020294189453125,-0.2662506103515625,-0.3213043212890625
1701815857959159800,2.354159912109375,-1.0171966552734375,-0.2717437744140625,-0.3274078369140625
1701815857969112800,2.36411279296875,-1.01422119140625,-0.283294677734375,-0.3252410888671875
1701815857979065900,2.37406591796875,-0.9831085205078125,-0.2715911865234375,-0.29949951171875
1701815857989018600,2.3840185546875,-0.9289398193359375,-0.25347900390625,-0.2663726806640625
1701815857998971600,2.3939716796875,-0.8740997314453125,-0.282958984375,-0.2604522705078125
1701815858008923600,2.403923583984375,-0.8275604248046875,-0.2952423095703125,-0.257232666015625
1701815858018876700,2.413876708984375,-0.789031982421875,-0.31756591796875,-0.2737579345703125
1701815858028829700,2.42382958984375,-0.7660675048828125,-0.3458709716796875,-0.293548583984375
1701815858038782700,2.43378271484375,-0.7460174560546875,-0.3683624267578125,-0.3014678955078125
1701815858048735700,2.44373583984375,-0.737701416015625,-0.3828125,-0.3033905029296875
1701815858058688800,2.453688720703125,-0.7580108642578125,-0.3870391845703125,-0.317626953125
1701815858068641800,2.463641845703125,-0.8034210205078125,-0.3724365234375,-0.3196258544921875
1701815858078594600,2.473594482421875,-0.846954345703125,-0.357635498046875,-0.298370361328125
1701815858088547600,2.483547607421875,-0.87493896484375,-0.3536376953125,-0.3041534423828125
1701815858098500600,2.49350048828125,-0.884490966796875,-0.33758544921875,-0.337738037109375
1701815858108453600,2.50345361328125,-0.8725433349609375,-0.3353729248046875,-0.368316650390625
1701815858118406700,2.51340673828125,-0.8618011474609375,-0.3505859375,-0.382049560546875
1701815858128359700,2.523359619140625,-0.85687255859375,-0.35894775390625,-0.39019775390625
1701815858138312700,2.533312744140625,-0.843719482421875,-0.3594512939453125,-0.3893585205078125
1701815858148265700,2.543265625,-0.820526123046875,-0.367767333984375,-0.3802642822265625
1701815858158218500,2.553218505859375,-0.8146209716796875,-0.3843841552734375,-0.3618011474609375
1701815858168170800,2.563170654296875,-0.8285064697265625,-0.4039306640625,-0.3366851806640625
1701815858178123800,2.573123779296875,-0.8436431884765625,-0.4157257080078125,-0.312347412109375
1701815858188076800,2.583076904296875,-0.8447723388671875,-0.41650390625,-0.295166015625
1701815858198029800,2.59302978515625,-0.8279266357421875,-0.4205322265625,-0.29095458984375
1701815858207982800,2.60298291015625,-0.805084228515625,-0.4342498779296875,-0.2965240478515625
1701815858217935600,2.612935546875,-0.7842864990234375,-0.4520263671875,-0.301239013671875
1701815858227888600,2.622888671875,-0.7758941650390625,-0.4594573974609375,-0.2976226806640625
1701815858237841700,2.632841552734375,-0.7676849365234375,-0.4667205810546875,-0.288421630859375
1701815858247793700,2.642793701171875,-0.769287109375,-0.4666900634765625,-0.2866668701171875
1701815858257746700,2.65274658203125,-0.7839202880859375,-0.467315673828125,-0.2931365966796875
1701815858267699700,2.66269970703125,-0.8035125732421875,-0.4732208251953125,-0.287628173828125
1701815858277652700,2.67265283203125,-0.821441650390625,-0.4769134521484375,-0.2777862548828125
1701815858287605800,2.682605712890625,-0.8441314697265625,-0.4748077392578125,-0.27734375
1701815858297558800,2.692558837890625,-0.8701629638671875,-0.478485107421875,-0.2686309814453125
1701815858307511600,2.702511474609375,-0.8748016357421875,-0.4869384765625,-0.25274658203125
1701815858317464600,2.712464599609375,-0.860626220703125,-0.495269775390625,-0.2473297119140625
1701815858327416600,2.72241650390625,-0.8618621826171875,-0.502044677734375,-0.24920654296875
1701815858337369600,2.73236962890625,-0.862640380859375,-0.5047149658203125,-0.2357025146484375
1701815858347322600,2.742322509765625,-0.8436431884765625,-0.5042724609375,-0.2156982421875
1701815858357275600,2.752275634765625,-0.8108978271484375,-0.50982666015625,-0.2001953125
1701815858367228700,2.762228759765625,-0.7897796630859375,-0.511260986328125,-0.1942138671875
1701815858377181700,2.772181640625,-0.78485107421875,-0.497589111328125,-0.1992034912109375
1701815858387134500,2.782134521484375,-0.778228759765625,-0.49481201171875,-0.228973388671875
1701815858397087500,2.79208740234375,-0.7877960205078125,-0.5004119873046875,-0.2435150146484375
1701815858407039700,2.802039794921875,-0.809814453125,-0.4893798828125,-0.2217864990234375
1701815858416992800,2.81199267578125,-0.852081298828125,-0.43548583984375,-0.17279052734375
1701815858426945800,2.82194580078125,-0.866363525390625,-0.445648193359375,-0.16876220703125
1701815858436898800,2.83189892578125,-0.8720703125,-0.4483184814453125,-0.175750732421875
1701815858446851800,2.841851806640625,-0.8488616943359375,-0.4533538818359375,-0.20233154296875
1701815858456804900,2.851804931640625,-0.80328369140625,-0.4556732177734375,-0.2326507568359375
1701815858466758000,2.8617578125,-0.79901123046875,-0.46600341796875,-0.2457122802734375
1701815858476710700,2.871710693359375,-0.839935302734375,-0.4758758544921875,-0.254638671875
1701815858486662700,2.88166259765625,-0.9008941650390625,-0.4766082763671875,-0.2588958740234375
1701815858496615700,2.89161572265625,-0.93902587890625,-0.4644775390625,-0.2352294921875
1701815858506568700,2.901568603515625,-0.95904541015625,-0.4430084228515625,-0.208648681640625
1701815858516521700,2.911521728515625,-0.967315673828125,-0.4336395263671875,-0.1939849853515625
1701815858526474800,2.921474853515625,-0.9581756591796875,-0.435455322265625,-0.1829071044921875
1701815858536427800,2.931427734375,-0.9345703125,-0.4439239501953125,-0.1773223876953125
1701815858546380800,2.941380859375,-0.9122772216796875,-0.453155517578125,-0.1746978759765625
1701815858556333800,2.951333740234375,-0.904144287109375,-0.45703125,-0.1751861572265625
1701815858566285600,2.96128564453125,-0.906402587890625,-0.45928955078125,-0.17425537109375
1701815858576238600,2.971238525390625,-0.9163360595703125,-0.4571380615234375,-0.1738739013671875
1701815858586191600,2.981191650390625,-0.9254913330078125,-0.4517364501953125,-0.17755126953125
1701815858596144600,2.99114453125,-0.93023681640625,-0.442779541015625,-0.1880340576171875
1701815858606097700,3.00109765625,-0.9238739013671875,-0.435821533203125,-0.1987762451171875
1701815858616050700,3.01105078125,-0.916015625,-0.4300537109375,-0.2153778076171875
1701815858626003700,3.021003662109375,-0.91021728515625,-0.41943359375,-0.2388763427734375
1701815858635956700,3.030956787109375,-0.90228271484375,-0.407623291015625,-0.26190185546875
1701815858645908500,3.040908447265625,-0.902191162109375,-0.4022674560546875,-0.282073974609375
1701815858655861500,3.050861572265625,-0.90399169921875,-0.40411376953125,-0.2874298095703125
1701815858665814500,3.060814453125,-0.9026641845703125,-0.4057464599609375,-0.2898406982421875
1701815858675767600,3.070767578125,-0.89208984375,-0.4072723388671875,-0.2895050048828125
1701815858685720600,3.080720458984375,-0.876129150390625,-0.409820556640625,-0.28558349609375
1701815858695673600,3.090673583984375,-0.8605804443359375,-0.4174041748046875,-0.2814178466796875
1701815858705626600,3.100626708984375,-0.8489837646484375,-0.4267578125,-0.2753143310546875
1701815858715579600,3.11057958984375,-0.8353271484375,-0.430328369140625,-0.27008056640625
1701815858725531600,3.12053173828125,-0.8248291015625,-0.434356689453125,-0.26885986328125
1701815858735484700,3.130484619140625,-0.82763671875,-0.4368133544921875,-0.2711334228515625
1701815858745437700,3.140437744140625,-0.8382720947265625,-0.4372406005859375,-0.27374267578125
1701815858755390700,3.150390625,-0.855560302734375,-0.4373931884765625,-0.2753753662109375
1701815858765343700,3.16034375,-0.8670196533203125,-0.4354705810546875,-0.2783355712890625
1701815858775296800,3.170296875,-0.8656005859375,-0.4313507080078125,-0.280487060546875
1701815858785249800,3.180249755859375,-0.8591766357421875,-0.42999267578125,-0.2830352783203125
1701815858795202800,3.190202880859375,-0.8516693115234375,-0.43157958984375,-0.2863006591796875
1701815858805155800,3.20015576171875,-0.84490966796875,-0.436187744140625,-0.2941436767578125
1701815858815107600,3.210107666015625,-0.83935546875,-0.441436767578125,-0.30181884765625
1701815858825060600,3.220060546875,-0.833160400390625,-0.4420623779296875,-0.303558349609375
1701815858835013600,3.230013671875,-0.83203125,-0.442108154296875,-0.3026580810546875
1701815858844966700,3.239966552734375,-0.83758544921875,-0.4424285888671875,-0.2999114990234375
1701815858854919700,3.249919677734375,-0.84429931640625,-0.4443817138671875,-0.2960662841796875
1701815858864872700,3.259872802734375,-0.845916748046875,-0.442535400390625,-0.296417236328125
1701815858874825700,3.26982568359375,-0.84783935546875,-0.44281005859375,-0.29705810546875
1701815858884778800,3.27977880859375,-0.847259521484375,-0.4456329345703125,-0.299652099609375
1701815858894730500,3.28973046875,-0.8449554443359375,-0.4485626220703125,-0.308197021484375
1701815858904683500,3.29968359375,-0.8380126953125,-0.4501495361328125,-0.3200836181640625
1701815858914636500,3.309636474609375,-0.827728271484375,-0.453033447265625,-0.329254150390625
1701815858924589600,3.319589599609375,-0.8226470947265625,-0.45635986328125,-0.33477783203125
1701815858934542600,3.32954248046875,-0.82421875,-0.4554595947265625,-0.338043212890625
1701815858944495600,3.33949560546875,-0.8277587890625,-0.4528961181640625,-0.3367919921875
1701815858954448600,3.34944873046875,-0.8288421630859375,-0.44830322265625,-0.3310546875
1701815858964401700,3.359401611328125,-0.8248748779296875,-0.4427642822265625,-0.326171875
1701815858974353700,3.369353759765625,-0.81829833984375,-0.44287109375,-0.3262939453125
1701815858984306700,3.379306640625,-0.819854736328125,-0.44805908203125,-0.319000244140625
1701815858994259700,3.389259765625,-0.8256683349609375,-0.451141357421875,-0.30535888671875
1701815859004212700,3.399212646484375,-0.8310699462890625,-0.45367431640625,-0.2953338623046875
1701815859014165800,3.409165771484375,-0.830902099609375,-0.4554290771484375,-0.2848968505859375
1701815859024118800,3.419118896484375,-0.8286895751953125,-0.459625244140625,-0.2783355712890625
1701815859034071800,3.42907177734375,-0.81988525390625,-0.4627227783203125,-0.2777252197265625
1701815859044024800,3.43902490234375,-0.8133544921875,-0.4632568359375,-0.2795867919921875
1701815859053976800,3.448976806640625,-0.8079071044921875,-0.4628143310546875,-0.2801055908203125
1701815859063929600,3.4589296875,-0.8112640380859375,-0.4638214111328125,-0.2749481201171875
1701815859073882600,3.468882568359375,-0.825286865234375,-0.46661376953125,-0.2659454345703125
1701815859083836000,3.4788359375,-0.840240478515625,-0.465301513671875,-0.2583770751953125
1701815859093789000,3.488788818359375,-0.8524322509765625,-0.460113525390625,-0.255828857421875
1701815859103742000,3.498741943359375,-0.85516357421875,-0.4578857421875,-0.2584228515625
1701815859113695000,3.508695068359375,-0.8528594970703125,-0.4563751220703125,-0.261810302734375
1701815859123647700,3.518647705078125,-0.8517303466796875,-0.4573822021484375,-0.2677764892578125
1701815859133599700,3.528599853515625,-0.8442840576171875,-0.4594268798828125,-0.26873779296875
1701815859143552800,3.538552734375,-0.8413238525390625,-0.4566497802734375,-0.2677154541015625
1701815859153505800,3.548505859375,-0.843109130859375,-0.45843505859375,-0.2685546875
1701815859163458800,3.558458740234375,-0.8489837646484375,-0.461944580078125,-0.2672119140625
1701815859173411800,3.568411865234375,-0.8551483154296875,-0.461761474609375,-0.2682647705078125
1701815859183364900,3.57836474609375,-0.8649749755859375,-0.462005615234375,-0.2671051025390625
1701815859193318000,3.58831787109375,-0.87615966796875,-0.4596099853515625,-0.268035888671875
1701815859203271000,3.59827099609375,-0.8757476806640625,-0.4554595947265625,-0.2708282470703125
1701815859213222700,3.60822265625,-0.87030029296875,-0.4528045654296875,-0.2713470458984375
1701815859223175700,3.61817578125,-0.8633575439453125,-0.45111083984375,-0.2743682861328125
1701815859233128700,3.628128662109375,-0.856658935546875,-0.450592041015625,-0.272857666015625
1701815859243081700,3.638081787109375,-0.854248046875,-0.44976806640625,-0.2753143310546875
1701815859253034800,3.64803466796875,-0.8579254150390625,-0.451324462890625,-0.2769622802734375
1701815859262987800,3.65798779296875,-0.8648529052734375,-0.4523468017578125,-0.274017333984375
1701815859272940800,3.66794091796875,-0.8675689697265625,-0.4522857666015625,-0.2729644775390625
1701815859282893800,3.677893798828125,-0.8616943359375,-0.44903564453125,-0.2754058837890625
1701815859292845800,3.687845703125,-0.851226806640625,-0.4496002197265625,-0.2827606201171875
1701815859302798800,3.697798828125,-0.840972900390625,-0.4479522705078125,-0.28900146484375
1701815859312751900,3.707751953125,-0.836181640625,-0.445831298828125,-0.2923583984375
1701815859322705000,3.717704833984375,-0.8380889892578125,-0.4447021484375,-0.289276123046875
1701815859332658000,3.727657958984375,-0.84124755859375,-0.4444427490234375,-0.291839599609375
1701815859342611000,3.73761083984375,-0.845001220703125,-0.4429168701171875,-0.290069580078125
1701815859352564000,3.74756396484375,-0.85540771484375,-0.447418212890625,-0.289825439453125
1701815859362517000,3.75751708984375,-0.86029052734375,-0.452880859375,-0.284942626953125
1701815859372468700,3.76746875,-0.854278564453125,-0.4485931396484375,-0.2717742919921875
1701815859382421800,3.777421875,-0.850677490234375,-0.4489288330078125,-0.2657623291015625
1701815859392374800,3.787374755859375,-0.8473052978515625,-0.4633941650390625,-0.26287841796875
1701815859402327800,3.797327880859375,-0.8458099365234375,-0.4702606201171875,-0.263397216796875
1701815859412280800,3.80728076171875,-0.8370208740234375,-0.4661407470703125,-0.2581787109375
1701815859422233900,3.81723388671875,-0.82855224609375,-0.4437713623046875,-0.2476654052734375
1701815859432187000,3.827186767578125,-0.8225860595703125,-0.4536895751953125,-0.253326416015625
1701815859442140000,3.837139892578125,-0.82470703125,-0.458587646484375,-0.2545928955078125
1701815859452091600,3.847091552734375,-0.8432464599609375,-0.4716033935546875,-0.271392822265625
1701815859462044700,3.857044677734375,-0.8478240966796875,-0.481903076171875,-0.284393310546875
1701815859471997700,3.866997802734375,-0.850555419921875,-0.474945068359375,-0.29681396484375
1701815859481950700,3.87695068359375,-0.844390869140625,-0.464385986328125,-0.3052978515625
1701815859491903700,3.88690380859375,-0.8387603759765625,-0.4498443603515625,-0.3029327392578125
1701815859501856800,3.896856689453125,-0.83905029296875,-0.4454345703125,-0.293487548828125
1701815859511809800,3.906809814453125,-0.8426971435546875,-0.4523162841796875,-0.2877197265625
1701815859521762800,3.9167626953125,-0.8473663330078125,-0.4553070068359375,-0.2830963134765625
1701815859531715800,3.9267158203125,-0.8487701416015625,-0.449798583984375,-0.28106689453125
1701815859541667600,3.93666748046875,-0.8537750244140625,-0.4361572265625,-0.2869873046875
1701815859551620600,3.94662060546875,-0.8681640625,-0.4224700927734375,-0.3050537109375
1701815859561573600,3.95657373046875,-0.877899169921875,-0.4245452880859375,-0.3182373046875
1701815859571526700,3.966526611328125,-0.87432861328125,-0.43017578125,-0.314605712890625
1701815859581479700,3.976479736328125,-0.85906982421875,-0.4166107177734375,-0.2942352294921875
1701815859591432700,3.9864326171875,-0.83740234375,-0.405303955078125,-0.2774810791015625
1701815859601385700,3.9963857421875,-0.84075927734375,-0.430999755859375,-0.2762908935546875
1701815859611338800,4.0063388671875,-0.8433990478515625,-0.398040771484375,-0.243133544921875
1701815859621290800,4.016290771484375,-0.839813232421875,-0.437042236328125,-0.2541046142578125
1701815859631243800,4.026243896484375,-0.8527069091796875,-0.4777679443359375,-0.2485504150390625
1701815859641196800,4.03619677734375,-0.851348876953125,-0.4911956787109375,-0.2331085205078125
1701815859651149800,4.04614990234375,-0.8255157470703125,-0.50787353515625,-0.26788330078125
1701815859661102800,4.056102783203125,-0.8105316162109375,-0.5250396728515625,-0.2925872802734375
1701815859671056000,4.066055908203125,-0.8072967529296875,-0.55010986328125,-0.3086700439453125
1701815859681009000,4.0760087890625,-0.794708251953125,-0.56683349609375,-0.3245849609375
1701815859690962000,4.0859619140625,-0.786285400390625,-0.57196044921875,-0.3354644775390625
1701815859700914000,4.095913818359375,-0.779083251953125,-0.556182861328125,-0.3269500732421875
1701815859710866700,4.10586669921875,-0.7741851806640625,-0.499176025390625,-0.2846527099609375
1701815859720819700,4.11581982421875,-0.7773284912109375,-0.465911865234375,-0.2586822509765625
1701815859730772700,4.125772705078125,-0.7894744873046875,-0.474884033203125,-0.2636566162109375
1701815859740725800,4.135725830078125,-0.8000335693359375,-0.48223876953125,-0.2730865478515625
1701815859750678800,4.1456787109375,-0.797027587890625,-0.4756927490234375,-0.2794342041015625
1701815859760631800,4.1556318359375,-0.7945098876953125,-0.4764556884765625,-0.2834930419921875
1701815859770584800,4.165584716796875,-0.7973175048828125,-0.481414794921875,-0.285797119140625
1701815859780536800,4.175536865234375,-0.7944793701171875,-0.4856109619140625,-0.2891387939453125
1701815859790489900,4.18548974609375,-0.785614013671875,-0.488616943359375,-0.2886505126953125
1701815859800442600,4.195442626953125,-0.7840423583984375,-0.4886322021484375,-0.2861175537109375
1701815859810395600,4.205395751953125,-0.778167724609375,-0.4875946044921875,-0.28204345703125
1701815859820348700,4.2153486328125,-0.7773284912109375,-0.48895263671875,-0.2783966064453125
1701815859830301700,4.2253017578125,-0.7818145751953125,-0.489959716796875,-0.27752685546875
1701815859840254700,4.235254638671875,-0.7934417724609375,-0.4934234619140625,-0.2738189697265625
1701815859850207700,4.245207763671875,-0.8153076171875,-0.494293212890625,-0.268463134765625
1701815859860160000,4.255159912109375,-0.8357086181640625,-0.4926300048828125,-0.2603912353515625
1701815859870112800,4.26511279296875,-0.846343994140625,-0.4888458251953125,-0.2567291259765625
1701815859880065800,4.275065673828125,-0.8488006591796875,-0.4880523681640625,-0.253265380859375
1701815859890018800,4.285018798828125,-0.845733642578125,-0.4888763427734375,-0.2545623779296875
1701815859899971800,4.294971923828125,-0.8408203125,-0.48907470703125,-0.25299072265625
1701815859909924900,4.3049248046875,-0.8416595458984375,-0.4878997802734375,-0.252410888671875
1701815859919878000,4.3148779296875,-0.8437042236328125,-0.487945556640625,-0.247467041015625
1701815859929831000,4.324830810546875,-0.85015869140625,-0.4896240234375,-0.242919921875
1701815859939783000,4.334782958984375,-0.8553619384765625,-0.4912567138671875,-0.2405853271484375
1701815859949736000,4.34473583984375,-0.8528594970703125,-0.49200439453125,-0.2336273193359375
1701815859959689000,4.35468896484375,-0.8483123779296875,-0.49444580078125,-0.2303466796875
1701815859969641700,4.364641845703125,-0.845458984375,-0.49444580078125,-0.229095458984375
1701815859979594800,4.3745947265625,-0.841705322265625,-0.4911041259765625,-0.2308502197265625
1701815859989547800,4.3845478515625,-0.838775634765625,-0.4842071533203125,-0.237945556640625
1701815859999500800,4.394500732421875,-0.8427886962890625,-0.4708099365234375,-0.2493896484375
1701815860009453800,4.404453857421875,-0.848846435546875,-0.45965576171875,-0.2613372802734375
1701815860019405800,4.41440576171875,-0.857391357421875,-0.451263427734375,-0.2786865234375
1701815860029358800,4.42435888671875,-0.8552398681640625,-0.44891357421875,-0.2968902587890625
1701815860039312000,4.434311767578125,-0.8615264892578125,-0.4502410888671875,-0.2892303466796875
1701815860049265000,4.444264892578125,-0.8737640380859375,-0.4641876220703125,-0.283782958984375
1701815860059217700,4.4542177734375,-0.8777618408203125,-0.4754638671875,-0.2588043212890625
1701815860069170700,4.464170654296875,-0.874755859375,-0.479339599609375,-0.230072021484375
1701815860079123700,4.474123779296875,-0.8699188232421875,-0.4849090576171875,-0.2116241455078125
1701815860089076500,4.484076416015625,-0.8675537109375,-0.49468994140625,-0.1995849609375
1701815860099029500,4.494029541015625,-0.8712158203125,-0.502349853515625,-0.187347412109375
1701815860108981500,4.5039814453125,-0.873504638671875,-0.5092010498046875,-0.183319091796875
1701815860118934500,4.5139345703125,-0.866485595703125,-0.5071868896484375,-0.1800079345703125
1701815860128887600,4.523887451171875,-0.8594818115234375,-0.506256103515625,-0.1836700439453125
1701815860138840300,4.53384033203125,-0.857513427734375,-0.5047149658203125,-0.190460205078125
1701815860148793300,4.54379345703125,-0.8583831787109375,-0.4993438720703125,-0.20086669921875
1701815860158746400,4.553746337890625,-0.860931396484375,-0.49267578125,-0.2089996337890625
1701815860168699400,4.563699462890625,-0.8654937744140625,-0.4864501953125,-0.215484619140625
1701815860178652400,4.57365234375,-0.8685302734375,-0.4810791015625,-0.2178955078125
1701815860188604700,4.583604736328125,-0.8645782470703125,-0.4783782958984375,-0.215667724609375
1701815860198557700,4.5935576171875,-0.8571929931640625,-0.4773406982421875,-0.212677001953125
1701815860208510700,4.6035107421875,-0.848541259765625,-0.47882080078125,-0.21160888671875
1701815860218463700,4.613463623046875,-0.84100341796875,-0.4831085205078125,-0.215972900390625
1701815860228416500,4.62341650390625,-0.8342437744140625,-0.4844818115234375,-0.21661376953125
1701815860238369500,4.63336962890625,-0.83160400390625,-0.484954833984375,-0.2129974365234375
1701815860248322600,4.643322509765625,-0.83575439453125,-0.485107421875,-0.21282958984375
1701815860258275600,4.653275634765625,-0.8371429443359375,-0.48492431640625,-0.2134857177734375
1701815860268227600,4.6632275390625,-0.83831787109375,-0.48419189453125,-0.2145843505859375
1701815860278180600,4.6731806640625,-0.8405303955078125,-0.4818572998046875,-0.215179443359375
1701815860288133600,4.683133544921875,-0.8408355712890625,-0.4805908203125,-0.215057373046875
1701815860298086700,4.693086669921875,-0.8381805419921875,-0.4793701171875,-0.215362548828125
1701815860308039400,4.703039306640625,-0.8368988037109375,-0.4795379638671875,-0.2159881591796875
1701815860317992400,4.712992431640625,-0.8387603759765625,-0.480438232421875,-0.21795654296875
1701815860327945500,4.722945556640625,-0.8431243896484375,-0.4797821044921875,-0.2204742431640625
1701815860337898500,4.7328984375,-0.844818115234375,-0.478424072265625,-0.2216796875
1701815860347850500,4.7428505859375,-0.8480682373046875,-0.477325439453125,-0.2241973876953125
1701815860357803500,4.752803466796875,-0.8512115478515625,-0.4743804931640625,-0.223236083984375
1701815860367756500,4.762756591796875,-0.8532562255859375,-0.473114013671875,-0.2200775146484375
1701815860377709600,4.77270947265625,-0.852569580078125,-0.474945068359375,-0.2194061279296875
1701815860387662600,4.78266259765625,-0.850799560546875,-0.472808837890625,-0.218017578125
1701815860397615400,4.792615478515625,-0.847991943359375,-0.4729461669921875,-0.2195892333984375
1701815860407568400,4.802568359375,-0.845428466796875,-0.472900390625,-0.2213592529296875
1701815860417521400,4.812521484375,-0.8493499755859375,-0.4737396240234375,-0.2218017578125
1701815860427473700,4.8224736328125,-0.8545684814453125,-0.473846435546875,-0.223968505859375
1701815860437426700,4.8324267578125,-0.85693359375,-0.4713592529296875,-0.2232208251953125
1701815860447379700,4.842379638671875,-0.85760498046875,-0.4696044921875,-0.2228546142578125
1701815860457332700,4.852332763671875,-0.86102294921875,-0.4693145751953125,-0.2222137451171875
1701815860467285800,4.86228564453125,-0.86248779296875,-0.4692840576171875,-0.22381591796875
1701815860477239600,4.872239501953125,-0.85943603515625,-0.467987060546875,-0.227203369140625
1701815860487192600,4.882192626953125,-0.8594512939453125,-0.468048095703125,-0.2288818359375
1701815860497144600,4.89214453125,-0.8638458251953125,-0.47027587890625,-0.22576904296875
1701815860507097600,4.90209765625,-0.86810302734375,-0.46832275390625,-0.22137451171875
1701815860517050600,4.912050537109375,-0.863739013671875,-0.469757080078125,-0.2217254638671875
1701815860527003600,4.922003662109375,-0.861572265625,-0.469207763671875,-0.2261505126953125
1701815860536956700,4.931956787109375,-0.8597869873046875,-0.469268798828125,-0.2270660400390625
1701815860546909700,4.94190966796875,-0.8624725341796875,-0.4691619873046875,-0.22979736328125
1701815860556862700,4.95186279296875,-0.8649444580078125,-0.466156005859375,-0.233245849609375
1701815860566815500,4.9618154296875,-0.8589324951171875,-0.464202880859375,-0.23504638671875
1701815860576767500,4.971767578125,-0.856475830078125,-0.46258544921875,-0.23822021484375
1701815860586720500,4.981720458984375,-0.8577728271484375,-0.4638214111328125,-0.23919677734375
1701815860596673500,4.991673583984375,-0.8560028076171875,-0.4622039794921875,-0.2388458251953125
1701815860606626600,5.00162646484375,-0.856201171875,-0.4609527587890625,-0.2386474609375
1701815860616579600,5.01157958984375,-0.85406494140625,-0.4606170654296875,-0.239532470703125
1701815860626532600,5.02153271484375,-0.854522705078125,-0.46258544921875,-0.2410736083984375
1701815860636485600,5.031485595703125,-0.85650634765625,-0.462646484375,-0.23773193359375
1701815860646438700,5.041438720703125,-0.8546600341796875,-0.4611358642578125,-0.23345947265625
1701815860656390400,5.051390380859375,-0.8545074462890625,-0.4634246826171875,-0.236236572265625
1701815860666343400,5.061343505859375,-0.85040283203125,-0.4642181396484375,-0.2363433837890625
1701815860676296400,5.07129638671875,-0.84716796875,-0.4651336669921875,-0.2366790771484375
1701815860686249500,5.08124951171875,-0.8484039306640625,-0.4649658203125,-0.2397918701171875
1701815860696202500,5.091202392578125,-0.8477783203125,-0.4679107666015625,-0.2422637939453125
1701815860706155500,5.101155517578125,-0.843231201171875,-0.467041015625,-0.2436981201171875
1701815860716108500,5.111108642578125,-0.84234619140625,-0.4672698974609375,-0.2423248291015625
1701815860726061600,5.1210615234375,-0.8418121337890625,-0.46636962890625,-0.24127197265625
1701815860736013600,5.131013671875,-0.8397369384765625,-0.462432861328125,-0.2396697998046875
1701815860745966300,5.14096630859375,-0.8390350341796875,-0.461517333984375,-0.2419586181640625
1701815860755919400,5.15091943359375,-0.8415679931640625,-0.462066650390625,-0.2437286376953125
1701815860765872400,5.160872314453125,-0.8496551513671875,-0.461639404296875,-0.244873046875
1701815860775825400,5.170825439453125,-0.8590087890625,-0.45928955078125,-0.2436981201171875
1701815860785778400,5.1807783203125,-0.8629302978515625,-0.457305908203125,-0.2416229248046875
1701815860795731500,5.1907314453125,-0.8621978759765625,-0.4535369873046875,-0.2450408935546875
1701815860805684500,5.2006845703125,-0.8566741943359375,-0.4566802978515625,-0.2467803955078125
1701815860815637500,5.210637451171875,-0.8494110107421875,-0.459625244140625,-0.2445068359375
1701815860825590500,5.220590576171875,-0.8462371826171875,-0.45989990234375,-0.243072509765625
1701815860835542500,5.23054248046875,-0.8516845703125,-0.460540771484375,-0.23956298828125
1701815860845495600,5.24049560546875,-0.8551788330078125,-0.4628753662109375,-0.237762451171875
1701815860855448600,5.250448486328125,-0.8603057861328125,-0.462615966796875,-0.233795166015625
1701815860865401600,5.260401611328125,-0.865936279296875,-0.461151123046875,-0.2339324951171875
1701815860875354600,5.270354736328125,-0.8646240234375,-0.4614410400390625,-0.234344482421875
1701815860885307600,5.2803076171875,-0.859954833984375,-0.461639404296875,-0.2378692626953125
1701815860895260700,5.2902607421875,-0.8571624755859375,-0.46051025390625,-0.2413482666015625
1701815860905213700,5.300213623046875,-0.8555450439453125,-0.46142578125,-0.24578857421875
1701815860915166700,5.310166748046875,-0.8540496826171875,-0.4586639404296875,-0.245819091796875
1701815860925118500,5.320118408203125,-0.8577728271484375,-0.4589385986328125,-0.2448272705078125
1701815860935071500,5.330071533203125,-0.857177734375,-0.4605255126953125,-0.24444580078125
1701815860945024500,5.3400244140625,-0.8555450439453125,-0.4598541259765625,-0.242431640625
1701815860954977500,5.3499775390625,-0.8556060791015625,-0.458251953125,-0.242645263671875
1701815860964930600,5.3599306640625,-0.8544464111328125,-0.46038818359375,-0.24395751953125
1701815860974883600,5.369883544921875,-0.8535003662109375,-0.4601287841796875,-0.24249267578125
1701815860984836600,5.379836669921875,-0.850830078125,-0.4613189697265625,-0.24273681640625
1701815860994789600,5.38978955078125,-0.84954833984375,-0.4608306884765625,-0.242919921875
1701815861004741400,5.399741455078125,-0.8519134521484375,-0.461090087890625,-0.2458038330078125
1701815861014694400,5.4096943359375,-0.849853515625,-0.4602203369140625,-0.247833251953125
1701815861024647400,5.4196474609375,-0.848114013671875,-0.4608001708984375,-0.2484283447265625
1701815861034600400,5.429600341796875,-0.8498382568359375,-0.4578094482421875,-0.2486572265625
1701815861044553500,5.439553466796875,-0.845733642578125,-0.4618682861328125,-0.243377685546875
1701815861054506500,5.449506591796875,-0.83184814453125,-0.467559814453125,-0.2364959716796875
1701815861064459500,5.45945947265625,-0.8238677978515625,-0.4714202880859375,-0.230194091796875
1701815861074412500,5.46941259765625,-0.8303680419921875,-0.4700775146484375,-0.2254791259765625
1701815861084365000,5.479364990234375,-0.83599853515625,-0.46759033203125,-0.226837158203125
1701815861094317300,5.4893173828125,-0.8384857177734375,-0.4634552001953125,-0.2312469482421875
1701815861104270300,5.499270263671875,-0.83935546875,-0.4586181640625,-0.2301025390625
1701815861114223400,5.509223388671875,-0.8375244140625,-0.457275390625,-0.2338714599609375
1701815861124176400,5.51917626953125,-0.8361663818359375,-0.455169677734375,-0.2396392822265625
1701815861134129400,5.52912939453125,-0.83624267578125,-0.4546966552734375,-0.238555908203125
1701815861144082200,5.539082275390625,-0.83935546875,-0.45184326171875,-0.238525390625
1701815861154035200,5.54903515625,-0.8472137451171875,-0.4484405517578125,-0.2411346435546875
1701815861163988200,5.55898828125,-0.85919189453125,-0.4472503662109375,-0.243896484375
1701815861173940200,5.568940185546875,-0.861297607421875,-0.442108154296875,-0.2447967529296875
1701815861183893200,5.578893310546875,-0.8633270263671875,-0.438079833984375,-0.2443389892578125
1701815861193846300,5.58884619140625,-0.866546630859375,-0.442474365234375,-0.246368408203125
1701815861203799300,5.59879931640625,-0.8658294677734375,-0.4449615478515625,-0.2423248291015625
1701815861213752300,5.60875244140625,-0.86065673828125,-0.4457855224609375,-0.2371368408203125
1701815861223705000,5.618705078125,-0.8557586669921875,-0.447509765625,-0.234832763671875
1701815861233658000,5.628658203125,-0.8577423095703125,-0.4491119384765625,-0.233917236328125
1701815861243611100,5.638611083984375,-0.8644256591796875,-0.4481201171875,-0.2308349609375
1701815861253564200,5.648564208984375,-0.873779296875,-0.44464111328125,-0.2353057861328125
1701815861263516200,5.65851611328125,-0.8780364990234375,-0.4398651123046875,-0.237884521484375
1701815861273469200,5.66846923828125,-0.8802490234375,-0.4346466064453125,-0.240936279296875
1701815861283422200,5.678422119140625,-0.8844757080078125,-0.43267822265625,-0.241912841796875
1701815861293375200,5.688375244140625,-0.884002685546875,-0.432769775390625,-0.244476318359375
1701815861303328300,5.698328369140625,-0.881317138671875,-0.430572509765625,-0.2438201904296875
1701815861313281000,5.708281005859375,-0.878265380859375,-0.4321136474609375,-0.2462615966796875
1701815861323234000,5.718234130859375,-0.87689208984375,-0.433319091796875,-0.2474517822265625
1701815861333187000,5.72818701171875,-0.87677001953125,-0.431732177734375,-0.2473297119140625
1701815861343140000,5.73814013671875,-0.8748016357421875,-0.4301300048828125,-0.2444610595703125
1701815861353092000,5.748092041015625,-0.8730621337890625,-0.432525634765625,-0.24285888671875
1701815861363045000,5.758045166015625,-0.87255859375,-0.4319610595703125,-0.242767333984375
1701815861372998100,5.767998046875,-0.8743743896484375,-0.43121337890625,-0.2435302734375
1701815861382951200,5.777951171875,-0.8755645751953125,-0.4273834228515625,-0.2456817626953125
1701815861392904200,5.787904296875,-0.879425048828125,-0.4250335693359375,-0.2484893798828125
1701815861402857000,5.79785693359375,-0.879608154296875,-0.4225921630859375,-0.2504730224609375
1701815861412810000,5.80781005859375,-0.87677001953125,-0.4206085205078125,-0.25482177734375
1701815861422763000,5.817762939453125,-0.88201904296875,-0.420318603515625,-0.2569580078125
1701815861432715300,5.82771533203125,-0.8835296630859375,-0.4237518310546875,-0.253021240234375
1701815861442668300,5.837668212890625,-0.88079833984375,-0.42437744140625,-0.2512969970703125
1701815861452621300,5.847621337890625,-0.8769073486328125,-0.4264678955078125,-0.2491607666015625
1701815861462574300,5.85757421875,-0.873748779296875,-0.4287872314453125,-0.2479400634765625
1701815861472527400,5.86752734375,-0.8718719482421875,-0.4294891357421875,-0.2474365234375
1701815861482480400,5.87748046875,-0.8705291748046875,-0.4293365478515625,-0.2491912841796875
1701815861492433200,5.88743310546875,-0.8712921142578125,-0.4299468994140625,-0.2498321533203125
1701815861502386200,5.89738623046875,-0.8729705810546875,-0.4282684326171875,-0.251678466796875
1701815861512339200,5.907339111328125,-0.872772216796875,-0.42559814453125,-0.2527008056640625
1701815861522291200,5.917291259765625,-0.8718719482421875,-0.4266815185546875,-0.252960205078125
1701815861532244200,5.927244140625,-0.86920166015625,-0.4282379150390625,-0.2530059814453125
1701815861542197200,5.937197265625,-0.8691253662109375,-0.4305419921875,-0.250396728515625
1701815861552150300,5.947150390625,-0.866241455078125,-0.431060791015625,-0.2469024658203125
1701815861562103300,5.957103271484375,-0.863983154296875,-0.431884765625,-0.2434844970703125
1701815861572056000,5.96705615234375,-0.862518310546875,-0.43310546875,-0.24383544921875
1701815861582009000,5.977009033203125,-0.8668060302734375,-0.4330291748046875,-0.2444305419921875
1701815861591962000,5.986962158203125,-0.8700408935546875,-0.433502197265625,-0.244903564453125
1701815861601914000,5.9969140625,-0.8710784912109375,-0.4313201904296875,-0.246612548828125
1701815861611867100,6.0068671875,-0.8705291748046875,-0.4316864013671875,-0.248443603515625
1701815861621820200,6.016820068359375,-0.8692169189453125,-0.43621826171875,-0.2485504150390625
1701815861631773200,6.026773193359375,-0.864532470703125,-0.437164306640625,-0.2451324462890625
1701815861641726200,6.036726318359375,-0.863189697265625,-0.4372100830078125,-0.2441253662109375
1701815861651679200,6.04667919921875,-0.8596649169921875,-0.4353179931640625,-0.2421875
1701815861661632000,6.056632080078125,-0.8617401123046875,-0.4351806640625,-0.24432373046875
1701815861671585000,6.0665849609375,-0.8657073974609375,-0.4347991943359375,-0.247039794921875
1701815861681538000,6.0765380859375,-0.8664703369140625,-0.4345550537109375,-0.24810791015625
1701815861691490000,6.086489990234375,-0.8674163818359375,-0.4356689453125,-0.25079345703125
1701815861701443000,6.096443115234375,-0.8701324462890625,-0.4343414306640625,-0.24896240234375
1701815861711396000,6.10639599609375,-0.8715057373046875,-0.4306182861328125,-0.2476959228515625
1701815861721349000,6.11634912109375,-0.8696441650390625,-0.4300537109375,-0.246002197265625
1701815861731302100,6.12630224609375,-0.8656463623046875,-0.432403564453125,-0.2452392578125
1701815861741255200,6.136255126953125,-0.862152099609375,-0.432861328125,-0.2459564208984375
1701815861751208200,6.146208251953125,-0.86199951171875,-0.435150146484375,-0.242034912109375
1701815861761161200,6.1561611328125,-0.861053466796875,-0.4361419677734375,-0.2400054931640625
1701815861771113200,6.16611328125,-0.8591461181640625,-0.4383087158203125,-0.2395477294921875
1701815861781066200,6.176066162109375,-0.8596343994140625,-0.438720703125,-0.240753173828125
1701815861791019300,6.186019287109375,-0.862548828125,-0.438140869140625,-0.23974609375
1701815861800972300,6.19597216796875,-0.864776611328125,-0.4372711181640625,-0.2406768798828125
1701815861810925300,6.20592529296875,-0.86480712890625,-0.4347991943359375,-0.2406158447265625
1701815861820878300,6.21587841796875,-0.8634185791015625,-0.434173583984375,-0.243743896484375
1701815861830831000,6.2258310546875,-0.86322021484375,-0.43505859375,-0.247650146484375
1701815861840784100,6.2357841796875,-0.862396240234375,-0.4365997314453125,-0.2458343505859375
1701815861850737200,6.245737060546875,-0.8615264892578125,-0.434814453125,-0.2450103759765625
1701815861860689200,6.255689208984375,-0.8652801513671875,-0.436309814453125,-0.2441558837890625
1701815861870642200,6.26564208984375,-0.867431640625,-0.437469482421875,-0.2434844970703125
1701815861880595200,6.27559521484375,-0.8674163818359375,-0.4372711181640625,-0.245330810546875
1701815861890548200,6.28554833984375,-0.865692138671875,-0.437652587890625,-0.2440643310546875
1701815861900501200,6.295501220703125,-0.863311767578125,-0.436248779296875,-0.2436981201171875
1701815861910454300,6.305454345703125,-0.859954833984375,-0.43756103515625,-0.2458648681640625
1701815861920407000,6.315406982421875,-0.86090087890625,-0.4385528564453125,-0.2442779541015625
1701815861930360000,6.325360107421875,-0.8613128662109375,-0.438812255859375,-0.2474822998046875
1701815861940312000,6.33531201171875,-0.8604278564453125,-0.4384002685546875,-0.247894287109375
1701815861950265000,6.34526513671875,-0.8600006103515625,-0.4370574951171875,-0.24560546875
1701815861960218000,6.355218017578125,-0.8583221435546875,-0.4365386962890625,-0.244476318359375
1701815861970171100,6.365171142578125,-0.8610076904296875,-0.43585205078125,-0.2436676025390625
1701815861980124200,6.375124267578125,-0.8646240234375,-0.4361114501953125,-0.244110107421875
1701815861990077200,6.3850771484375,-0.866546630859375,-0.4349212646484375,-0.243865966796875
1701815862000030200,6.3950302734375,-0.8662109375,-0.434326171875,-0.2451629638671875
1701815862009983000,6.40498291015625,-0.86517333984375,-0.4346923828125,-0.2494964599609375
1701815862019936000,6.41493603515625,-0.863372802734375,-0.435638427734375,-0.2489776611328125
1701815862029888300,6.42488818359375,-0.8601837158203125,-0.4328460693359375,-0.247833251953125
1701815862039841300,6.43484130859375,-0.8605804443359375,-0.4366302490234375,-0.2457733154296875
1701815862049794300,6.444794189453125,-0.8624725341796875,-0.437408447265625,-0.241546630859375
1701815862059747300,6.454747314453125,-0.857757568359375,-0.4394073486328125,-0.2401580810546875
1701815862069700400,6.464700439453125,-0.85516357421875,-0.44012451171875,-0.239288330078125
1701815862079653400,6.4746533203125,-0.8555908203125,-0.4431915283203125,-0.2429046630859375
1701815862089606400,6.4846064453125,-0.8546142578125,-0.4412689208984375,-0.2442474365234375
1701815862099559400,6.494559326171875,-0.855438232421875,-0.4398345947265625,-0.244781494140625
1701815862109512400,6.504512451171875,-0.857269287109375,-0.4384002685546875,-0.24798583984375
1701815862119464400,6.51446435546875,-0.8590545654296875,-0.438140869140625,-0.246673583984375
1701815862129417500,6.52441748046875,-0.8629608154296875,-0.43585205078125,-0.2443695068359375
1701815862139370500,6.53437060546875,-0.8673248291015625,-0.433929443359375,-0.2435302734375
1701815862149323500,6.544323486328125,-0.8704071044921875,-0.4312286376953125,-0.243194580078125
1701815862159276500,6.554276611328125,-0.871673583984375,-0.4321746826171875,-0.2409210205078125
1701815862169229600,6.5642294921875,-0.875244140625,-0.4322662353515625,-0.2410888671875
1701815862179182600,6.5741826171875,-0.8796539306640625,-0.43231201171875,-0.23992919921875
1701815862189135400,6.58413525390625,-0.8858795166015625,-0.4335479736328125,-0.2382049560546875
1701815862199088400,6.59408837890625,-0.8850555419921875,-0.4315643310546875,-0.2383575439453125
1701815862209040400,6.604040283203125,-0.8861541748046875,-0.4287872314453125,-0.239410400390625
1701815862218993400,6.613993408203125,-0.88665771484375,-0.4288330078125,-0.241241455078125
1701815862228946400,6.623946533203125,-0.8885040283203125,-0.42584228515625,-0.2427978515625
1701815862238899500,6.6338994140625,-0.89154052734375,-0.4257354736328125,-0.2440338134765625
1701815862248852500,6.6438525390625,-0.8903656005859375,-0.4234161376953125,-0.2433013916015625
1701815862258805500,6.653805419921875,-0.8910064697265625,-0.422760009765625,-0.242767333984375
1701815862268758500,6.663758544921875,-0.892364501953125,-0.426513671875,-0.243682861328125
1701815862278711300,6.673711181640625,-0.893157958984375,-0.4283294677734375,-0.2414703369140625
1701815862288663300,6.683663330078125,-0.887939453125,-0.430755615234375,-0.2427520751953125
1701815862298616300,6.6936162109375,-0.88519287109375,-0.432525634765625,-0.24456787109375
1701815862308569300,6.7035693359375,-0.8804473876953125,-0.4344940185546875,-0.2459564208984375
1701815862318522400,6.7135224609375,-0.8765106201171875,-0.4362030029296875,-0.244476318359375
1701815862328475400,6.723475341796875,-0.8759002685546875,-0.43505859375,-0.2453460693359375
1701815862338428400,6.733428466796875,-0.871368408203125,-0.4352264404296875,-0.2442779541015625
1701815862348381400,6.74338134765625,-0.86767578125,-0.436126708984375,-0.2442626953125
1701815862358334200,6.753334228515625,-0.8635711669921875,-0.43853759765625,-0.2447967529296875
1701815862368287200,6.763287353515625,-0.861968994140625,-0.438995361328125,-0.2422943115234375
1701815862378239500,6.773239501953125,-0.863250732421875,-0.4401702880859375,-0.2410430908203125
1701815862388192500,6.783192626953125,-0.861541748046875,-0.4420013427734375,-0.24102783203125
1701815862398145500,6.7931455078125,-0.8617706298828125,-0.443939208984375,-0.242279052734375
1701815862408098600,6.8030986328125,-0.85888671875,-0.4464569091796875,-0.2435455322265625
1701815862418051600,6.813051513671875,-0.85418701171875,-0.447906494140625,-0.242401123046875
1701815862428004600,6.823004638671875,-0.8521881103515625,-0.44879150390625,-0.2395172119140625
1701815862437957600,6.83295751953125,-0.847137451171875,-0.44952392578125,-0.23638916015625
1701815862447910400,6.842910400390625,-0.84417724609375,-0.4517822265625,-0.234832763671875
1701815862457862400,6.8528623046875,-0.8409576416015625,-0.452728271484375,-0.23577880859375
1701815862467815400,6.8628154296875,-0.8369293212890625,-0.4521331787109375,-0.2402496337890625
1701815862477768400,6.8727685546875,-0.834136962890625,-0.448455810546875,-0.2436065673828125
1701815862487721500,6.882721435546875,-0.8325042724609375,-0.4465179443359375,-0.247528076171875
1701815862497674500,6.892674560546875,-0.834503173828125,-0.44537353515625,-0.251251220703125
1701815862507627500,6.90262744140625,-0.8378448486328125,-0.446807861328125,-0.2533416748046875
1701815862517580500,6.91258056640625,-0.839630126953125,-0.4455108642578125,-0.2503204345703125
1701815862527533600,6.922533447265625,-0.83984375,-0.4442291259765625,-0.2503509521484375
1701815862537486300,6.932486328125,-0.842132568359375,-0.4416046142578125,-0.25225830078125
1701815862547438300,6.942438232421875,-0.84478759765625,-0.4419708251953125,-0.2549591064453125
1701815862557391400,6.952391357421875,-0.84759521484375,-0.4405517578125,-0.2587890625
1701815862567344400,6.962344482421875,-0.8484344482421875,-0.4376373291015625,-0.2596435546875
1701815862577297400,6.97229736328125,-0.849365234375,-0.4365234375,-0.2621612548828125
1701815862587250400,6.98225048828125,-0.8514251708984375,-0.4338531494140625,-0.268035888671875
1701815862597203500,6.992203369140625,-0.8546295166015625,-0.433502197265625,-0.267425537109375
1701815862607156500,7.002156494140625,-0.8561859130859375,-0.432464599609375,-0.2672882080078125
1701815862617109500,7.012109619140625,-0.8607330322265625,-0.4318084716796875,-0.2674713134765625
1701815862627061200,7.022061279296875,-0.861602783203125,-0.429962158203125,-0.265167236328125
1701815862637014300,7.03201416015625,-0.861328125,-0.4303741455078125,-0.26708984375
1701815862646967300,7.04196728515625,-0.8658905029296875,-0.4328155517578125,-0.2670135498046875
1701815862656920300,7.05192041015625,-0.8714141845703125,-0.4335784912109375,-0.2646942138671875
1701815862666873300,7.061873291015625,-0.8765411376953125,-0.430419921875,-0.2644500732421875
1701815862676826400,7.071826416015625,-0.876312255859375,-0.4308624267578125,-0.2675018310546875
1701815862686779400,7.081779296875,-0.87591552734375,-0.431793212890625,-0.2698516845703125
1701815862696732400,7.091732421875,-0.8760986328125,-0.4322357177734375,-0.270172119140625
1701815862706685200,7.101685302734375,-0.8753662109375,-0.4312744140625,-0.2673492431640625
1701815862716637400,7.111637451171875,-0.8697662353515625,-0.4320831298828125,-0.2641754150390625
1701815862726590500,7.121590576171875,-0.86419677734375,-0.43310546875,-0.2625274658203125
1701815862736543500,7.13154345703125,-0.863372802734375,-0.435546875,-0.2608184814453125
1701815862746496500,7.14149658203125,-0.862548828125,-0.4356689453125,-0.260223388671875
1701815862756449500,7.151449462890625,-0.8627777099609375,-0.43670654296875,-0.2569580078125
1701815862766402600,7.161402587890625,-0.863525390625,-0.439208984375,-0.253448486328125
1701815862776355600,7.17135546875,-0.8609619140625,-0.4398956298828125,-0.252716064453125
1701815862786308600,7.18130859375,-0.8582000732421875,-0.44195556640625,-0.2471923828125
1701815862796261400,7.191261474609375,-0.8542938232421875,-0.4430999755859375,-0.2429962158203125
1701815862806213400,7.20121337890625,-0.8521270751953125,-0.444183349609375,-0.241302490234375
1701815862816166400,7.21116650390625,-0.8473358154296875,-0.446563720703125,-0.241455078125
1701815862826119400,7.221119384765625,-0.846435546875,-0.4472808837890625,-0.2422943115234375
1701815862836072400,7.231072509765625,-0.84759521484375,-0.4456787109375,-0.2431640625
1701815862846025500,7.241025390625,-0.84869384765625,-0.443939208984375,-0.2435760498046875
1701815862855978500,7.250978515625,-0.8539276123046875,-0.443267822265625,-0.243804931640625
1701815862865931500,7.260931640625,-0.857635498046875,-0.440704345703125,-0.2475738525390625
1701815862875884500,7.270884521484375,-0.859954833984375,-0.4383392333984375,-0.2488861083984375
1701815862885836300,7.280836181640625,-0.86163330078125,-0.434051513671875,-0.2488250732421875
1701815862895789300,7.290789306640625,-0.8614044189453125,-0.432586669921875,-0.2479400634765625
1701815862905742300,7.300742431640625,-0.859527587890625,-0.432159423828125,-0.24761962890625
1701815862915695400,7.3106953125,-0.8591156005859375,-0.436859130859375,-0.2457733154296875
1701815862925648400,7.3206484375,-0.8616485595703125,-0.4402618408203125,-0.2451324462890625
1701815862935601400,7.330601318359375,-0.864837646484375,-0.4404296875,-0.2435150146484375
1701815862945554400,7.340554443359375,-0.8675384521484375,-0.442779541015625,-0.2441558837890625
1701815862955507500,7.350507568359375,-0.8670196533203125,-0.440277099609375,-0.2458953857421875
1701815862965460200,7.360460205078125,-0.8672332763671875,-0.4365234375,-0.2454376220703125
1701815862975412500,7.37041259765625,-0.8678436279296875,-0.43170166015625,-0.2470245361328125
1701815862985365500,7.380365478515625,-0.8745269775390625,-0.4332122802734375,-0.255767822265625
1701815862995318500,7.390318603515625,-0.8775787353515625,-0.43890380859375,-0.260498046875
1701815863005271600,7.400271484375,-0.872955322265625,-0.43902587890625,-0.2574920654296875
1701815863015224600,7.410224609375,-0.8697509765625,-0.431365966796875,-0.249176025390625
1701815863025177600,7.420177490234375,-0.866180419921875,-0.430145263671875,-0.2478790283203125
1701815863035130600,7.430130615234375,-0.8635406494140625,-0.43243408203125,-0.2530975341796875
1701815863045083600,7.440083740234375,-0.8627471923828125,-0.432037353515625,-0.2593536376953125
1701815863055035400,7.450035400390625,-0.86590576171875,-0.430328369140625,-0.25823974609375
1701815863064988400,7.459988525390625,-0.86767578125,-0.4291839599609375,-0.2577667236328125
1701815863074941400,7.46994140625,-0.8648681640625,-0.433563232421875,-0.25616455078125
1701815863084894000,7.47989404296875,-0.8613128662109375,-0.436370849609375,-0.253936767578125
1701815863094846700,7.4898466796875,-0.8579254150390625,-0.436614990234375,-0.2533111572265625
1701815863104799700,7.4997998046875,-0.8570709228515625,-0.436126708984375,-0.256072998046875
1701815863114752800,7.509752685546875,-0.8614501953125,-0.434295654296875,-0.259796142578125
1701815863124705800,7.519705810546875,-0.86065673828125,-0.4293670654296875,-0.2621002197265625
1701815863134658800,7.529658935546875,-0.8600006103515625,-0.4291839599609375,-0.264404296875
1701815863144610800,7.53961083984375,-0.860931396484375,-0.4304046630859375,-0.2626190185546875
1701815863154563800,7.549563720703125,-0.8564300537109375,-0.4307403564453125,-0.258544921875
1701815863164516900,7.559516845703125,-0.854034423828125,-0.4326324462890625,-0.256591796875
1701815863174470000,7.569469970703125,-0.8539581298828125,-0.434478759765625,-0.255859375
1701815863184422700,7.579422607421875,-0.8565216064453125,-0.43402099609375,-0.2556304931640625
1701815863194375700,7.589375732421875,-0.858489990234375,-0.43096923828125,-0.2565155029296875
1701815863204328700,7.59932861328125,-0.8604888916015625,-0.42742919921875,-0.2571868896484375
1701815863214281700,7.60928173828125,-0.8651275634765625,-0.427337646484375,-0.2611083984375
1701815863224234800,7.61923486328125,-0.8655548095703125,-0.427734375,-0.265533447265625
1701815863234187000,7.62918701171875,-0.86328125,-0.429229736328125,-0.260955810546875
1701815863244140000,7.63914013671875,-0.863067626953125,-0.43023681640625,-0.2549896240234375
1701815863254093000,7.649093017578125,-0.864227294921875,-0.432373046875,-0.249725341796875
1701815863264046000,7.659046142578125,-0.86627197265625,-0.4320220947265625,-0.2437744140625
1701815863273998800,7.668998779296875,-0.8693084716796875,-0.4334564208984375,-0.247222900390625
1701815863283951900,7.678951904296875,-0.8717193603515625,-0.4333343505859375,-0.2497100830078125
1701815863293905000,7.68890478515625,-0.8745574951171875,-0.4304046630859375,-0.253448486328125
1701815863303858000,7.69885791015625,-0.8759918212890625,-0.431365966796875,-0.254302978515625
1701815863313811000,7.70881103515625,-0.87603759765625,-0.432708740234375,-0.24920654296875
1701815863323763000,7.718762939453125,-0.8763885498046875,-0.4349822998046875,-0.24981689453125
1701815863333716000,7.728716064453125,-0.87164306640625,-0.43560791015625,-0.248291015625
1701815863343669000,7.7386689453125,-0.8676605224609375,-0.4351959228515625,-0.2484130859375
1701815863353621800,7.748621826171875,-0.866546630859375,-0.435089111328125,-0.24969482421875
1701815863363574800,7.75857470703125,-0.8704986572265625,-0.4343719482421875,-0.2487640380859375
1701815863373527800,7.76852783203125,-0.8712310791015625,-0.4315338134765625,-0.2493896484375
1701815863383480800,7.778480712890625,-0.8719940185546875,-0.430816650390625,-0.2499237060546875
1701815863393433900,7.788433837890625,-0.8724365234375,-0.426849365234375,-0.253692626953125
1701815863403385900,7.7983857421875,-0.87615966796875,-0.42529296875,-0.2546539306640625
1701815863413339000,7.8083388671875,-0.8796539306640625,-0.4232025146484375,-0.253448486328125
1701815863423292000,7.8182919921875,-0.8855438232421875,-0.4233856201171875,-0.2565460205078125
1701815863433245000,7.828244873046875,-0.88409423828125,-0.4225616455078125,-0.2576141357421875
1701815863443197700,7.83819775390625,-0.8784637451171875,-0.4213714599609375,-0.259307861328125
1701815863453150700,7.848150634765625,-0.8734893798828125,-0.4239959716796875,-0.25909423828125
1701815863463103700,7.858103759765625,-0.8705596923828125,-0.4229888916015625,-0.260528564453125
1701815863473056800,7.868056884765625,-0.8680267333984375,-0.4233551025390625,-0.25946044921875
1701815863483008800,7.8780087890625,-0.8645782470703125,-0.425506591796875,-0.2566375732421875
1701815863492961800,7.8879619140625,-0.8620452880859375,-0.4287567138671875,-0.2571868896484375
1701815863502914800,7.897914794921875,-0.8572540283203125,-0.4299774169921875,-0.2591094970703125
1701815863512867800,7.907867919921875,-0.8524627685546875,-0.42974853515625,-0.26031494140625
1701815863522820900,7.91782080078125,-0.8463897705078125,-0.4294891357421875,-0.259918212890625
1701815863532773600,7.927773681640625,-0.8423614501953125,-0.4274139404296875,-0.2599334716796875
1701815863542726700,7.9377265625,-0.842193603515625,-0.4286346435546875,-0.2591400146484375
1701815863552679700,7.9476796875,-0.8499908447265625,-0.4270172119140625,-0.2561187744140625
1701815863562632700,7.9576328125,-0.862274169921875,-0.4255523681640625,-0.25469970703125
1701815863572585000,7.9675849609375,-0.86895751953125,-0.4258575439453125,-0.250091552734375
1701815863582538000,7.9775380859375,-0.8715667724609375,-0.4279632568359375,-0.2483673095703125
1701815863592491000,7.987490966796875,-0.8679656982421875,-0.431610107421875,-0.2449493408203125
1701815863602444000,7.997444091796875,-0.8643341064453125,-0.4354095458984375,-0.240875244140625
1701815863612396800,8.007396728515625,-0.865142822265625,-0.4393463134765625,-0.2383880615234375
1701815863622349800,8.017349853515626,-0.8710784912109375,-0.44073486328125,-0.2364349365234375
1701815863632302800,8.027302734375,-0.8753814697265625,-0.4405517578125,-0.2336883544921875
1701815863642256000,8.037255859375,-0.8793487548828125,-0.4365692138671875,-0.23443603515625
1701815863652209000,8.047208984375,-0.8801727294921875,-0.4352264404296875,-0.2379302978515625
1701815863662161000,8.057160888671875,-0.877777099609375,-0.4337310791015625,-0.24127197265625
1701815863672114000,8.067114013671874,-0.87408447265625,-0.4332733154296875,-0.24481201171875
1701815863682067000,8.07706689453125,-0.871185302734375,-0.429534912109375,-0.24725341796875
1701815863692020000,8.08702001953125,-0.871185302734375,-0.42913818359375,-0.2496185302734375
1701815863701972700,8.09697265625,-0.87310791015625,-0.431884765625,-0.2513885498046875
1701815863711925800,8.10692578125,-0.8760986328125,-0.42877197265625,-0.2549591064453125
1701815863721878800,8.116878662109375,-0.8767547607421875,-0.4270477294921875,-0.25689697265625
1701815863731831800,8.126831787109374,-0.8789825439453125,-0.425018310546875,-0.2606658935546875
1701815863741783800,8.13678369140625,-0.8812255859375,-0.421966552734375,-0.2601470947265625
1701815863751736800,8.14673681640625,-0.8811798095703125,-0.4203948974609375,-0.2628631591796875
1701815863761689900,8.15668994140625,-0.881927490234375,-0.42071533203125,-0.2636566162109375
1701815863771643000,8.166642822265626,-0.884796142578125,-0.4208526611328125,-0.2619171142578125
1701815863781596000,8.176595947265625,-0.8806304931640625,-0.419769287109375,-0.262908935546875
1701815863791548700,8.186548583984376,-0.8737945556640625,-0.4222869873046875,-0.26409912109375
1701815863801501700,8.196501708984375,-0.863433837890625,-0.4240875244140625,-0.261383056640625
1701815863811454700,8.206454833984376,-0.85174560546875,-0.4265289306640625,-0.25537109375
1701815863821407700,8.21640771484375,-0.8419036865234375,-0.4301605224609375,-0.2535858154296875
1701815863831359700,8.22635986328125,-0.8402862548828125,-0.435028076171875,-0.252899169921875
1701815863841312800,8.236312744140625,-0.842803955078125,-0.437286376953125,-0.2487030029296875
1701815863851265800,8.246265869140625,-0.845703125,-0.4354400634765625,-0.246673583984375
1701815863861218800,8.25621875,-0.8477783203125,-0.434326171875,-0.246612548828125
1701815863871171800,8.266171875,-0.8505096435546875,-0.43572998046875,-0.2469482421875
1701815863881124600,8.27612451171875,-0.853240966796875,-0.4365692138671875,-0.245391845703125
1701815863891077600,8.28607763671875,-0.8515167236328125,-0.437835693359375,-0.2468414306640625
1701815863901030700,8.29603076171875,-0.851470947265625,-0.4379119873046875,-0.2440032958984375
1701815863910983700,8.305983642578125,-0.8526611328125,-0.436981201171875,-0.2419281005859375
1701815863920936000,8.31593603515625,-0.852081298828125,-0.4375,-0.23858642578125
1701815863930889000,8.325888916015625,-0.8533477783203125,-0.4394073486328125,-0.2371826171875
1701815863940842000,8.335842041015624,-0.8531494140625,-0.440277099609375,-0.2336883544921875
1701815863950795000,8.345794921875,-0.8519439697265625,-0.4391326904296875,-0.232086181640625
1701815863960747800,8.355747802734374,-0.8543243408203125,-0.439666748046875,-0.2311859130859375
1701815863970700800,8.36570068359375,-0.8580474853515625,-0.441009521484375,-0.2306671142578125
1701815863980653800,8.37565380859375,-0.8652191162109375,-0.4409027099609375,-0.230010986328125
1701815863990606800,8.38560693359375,-0.86871337890625,-0.4363250732421875,-0.2310791015625
1701815864000558800,8.395558837890626,-0.8720245361328125,-0.4300994873046875,-0.233856201171875
1701815864010512000,8.405511962890625,-0.8726959228515625,-0.4294891357421875,-0.23779296875
1701815864020465000,8.41546484375,-0.8759918212890625,-0.4295654296875,-0.2430267333984375
1701815864030418000,8.42541796875,-0.8765716552734375,-0.4324798583984375,-0.245391845703125
1701815864040371000,8.435370849609376,-0.8764495849609375,-0.4321136474609375,-0.2413787841796875
1701815864050323700,8.44532373046875,-0.87786865234375,-0.432708740234375,-0.2375335693359375
1701815864060276700,8.45527685546875,-0.8796234130859375,-0.43389892578125,-0.236968994140625
1701815864070229800,8.465229736328125,-0.8843841552734375,-0.433807373046875,-0.2355499267578125
1701815864080182800,8.475182861328125,-0.8902587890625,-0.4295501708984375,-0.2402801513671875
1701815864090134800,8.485134765625,-0.890869140625,-0.4263153076171875,-0.2454376220703125
1701815864100087800,8.495087890625,-0.8889007568359375,-0.4259490966796875,-0.24658203125
1701815864110040800,8.505040771484374,-0.8881683349609375,-0.425506591796875,-0.2485504150390625
1701815864119993900,8.514993896484375,-0.8843536376953125,-0.428619384765625,-0.24725341796875
1701815864129947000,8.52494677734375,-0.8815765380859375,-0.4305267333984375,-0.2463836669921875
1701815864139900000,8.53489990234375,-0.8777923583984375,-0.429779052734375,-0.2462005615234375
1701815864149853000,8.54485302734375,-0.8726348876953125,-0.4306488037109375,-0.2475433349609375
1701815864159806000,8.554805908203125,-0.871429443359375,-0.4257659912109375,-0.2524261474609375
1701815864169759000,8.564759033203124,-0.8702392578125,-0.421783447265625,-0.25750732421875
1701815864179711000,8.5747109375,-0.869171142578125,-0.41851806640625,-0.26361083984375
1701815864189664000,8.5846640625,-0.8662261962890625,-0.4159698486328125,-0.2680206298828125
1701815864199617000,8.594616943359375,-0.86260986328125,-0.4158935546875,-0.2712249755859375
1701815864209570000,8.604570068359376,-0.858978271484375,-0.4142913818359375,-0.2738037109375
1701815864219523000,8.614523193359375,-0.858245849609375,-0.4136199951171875,-0.2742919921875
1701815864229476000,8.62447607421875,-0.8625030517578125,-0.413055419921875,-0.272003173828125
1701815864239429000,8.63442919921875,-0.8635711669921875,-0.4130096435546875,-0.270843505859375
1701815864249382100,8.644382080078126,-0.8633575439453125,-0.4148712158203125,-0.2720947265625
1701815864259334000,8.654333984375,-0.862762451171875,-0.4156341552734375,-0.2706298828125
1701815864269287000,8.664286865234375,-0.861602783203125,-0.417205810546875,-0.27069091796875
1701815864279240000,8.674239990234375,-0.8605804443359375,-0.41937255859375,-0.2730255126953125
1701815864289193000,8.68419287109375,-0.8619384765625,-0.420654296875,-0.273345947265625
1701815864299146000,8.69414599609375,-0.86126708984375,-0.4229583740234375,-0.274505615234375
1701815864309099000,8.70409912109375,-0.860443115234375,-0.42559814453125,-0.2729034423828125
1701815864319052000,8.714052001953124,-0.8609466552734375,-0.4258575439453125,-0.267608642578125
1701815864329005000,8.724005126953125,-0.8590545654296875,-0.4255523681640625,-0.262786865234375
1701815864338958000,8.7339580078125,-0.8581695556640625,-0.4253692626953125,-0.2588653564453125
1701815864348909800,8.743909912109375,-0.8554840087890625,-0.42724609375,-0.2598876953125
1701815864358862800,8.75386279296875,-0.8566741943359375,-0.42779541015625,-0.2620697021484375
1701815864368815900,8.76381591796875,-0.858245849609375,-0.425323486328125,-0.26275634765625
1701815864378769000,8.773768798828126,-0.8589935302734375,-0.425537109375,-0.2653045654296875
1701815864388722000,8.783721923828125,-0.856353759765625,-0.42626953125,-0.26629638671875
1701815864398675000,8.793675048828124,-0.8517608642578125,-0.424102783203125,-0.265411376953125
1701815864408628000,8.8036279296875,-0.847930908203125,-0.4247589111328125,-0.2631988525390625
1701815864418581000,8.8135810546875,-0.844085693359375,-0.4255828857421875,-0.2606048583984375
1701815864428532700,8.82353271484375,-0.84381103515625,-0.4248199462890625,-0.2569122314453125
1701815864438485800,8.83348583984375,-0.8446502685546875,-0.4232330322265625,-0.2554931640625
1701815864448438800,8.843438720703125,-0.849822998046875,-0.4242401123046875,-0.254058837890625
1701815864458391800,8.853391845703126,-0.8561859130859375,-0.423583984375,-0.2533721923828125
1701815864468344800,8.8633447265625,-0.8638458251953125,-0.4229888916015625,-0.25079345703125
1701815864478297900,8.8732978515625,-0.870574951171875,-0.421661376953125,-0.249603271484375
1701815864488251000,8.8832509765625,-0.8751678466796875,-0.4222412109375,-0.2481536865234375
1701815864498204000,8.893203857421875,-0.876312255859375,-0.4247283935546875,-0.2490234375
1701815864508156000,8.903156005859374,-0.8765869140625,-0.4231109619140625,-0.24664306640625
1701815864518109000,8.91310888671875,-0.87921142578125,-0.423858642578125,-0.2475128173828125
1701815864528062000,8.92306201171875,-0.880218505859375,-0.4217987060546875,-0.246490478515625
1701815864538015000,8.933014892578125,-0.8819580078125,-0.4213409423828125,-0.2431793212890625
1701815864547968000,8.942968017578124,-0.8838348388671875,-0.422119140625,-0.23870849609375
1701815864557921000,8.952921142578125,-0.8824310302734375,-0.42022705078125,-0.236328125
1701815864567874000,8.9628740234375,-0.8828277587890625,-0.4193878173828125,-0.234771728515625
1701815864577827000,8.9728271484375,-0.8780975341796875,-0.421722412109375,-0.23724365234375
1701815864587778800,8.98277880859375,-0.873321533203125,-0.4222412109375,-0.238983154296875
1701815864597731800,8.99273193359375,-0.868896484375,-0.4241790771484375,-0.238800048828125
1701815864607684900,9.002684814453126,-0.870025634765625,-0.4241790771484375,-0.2363433837890625
1701815864617638000,9.012637939453125,-0.873779296875,-0.4257659912109375,-0.232757568359375
1701815864627591000,9.0225908203125,-0.8802337646484375,-0.4261016845703125,-0.22906494140625
1701815864637544000,9.0325439453125,-0.8841705322265625,-0.426605224609375,-0.220916748046875
1701815864647497000,9.0424970703125,-0.8861083984375,-0.4287261962890625,-0.216552734375
1701815864657450000,9.052449951171875,-0.884490966796875,-0.431243896484375,-0.211273193359375
1701815864667403000,9.062403076171876,-0.881927490234375,-0.43267822265625,-0.203460693359375
1701815864677354800,9.072354736328125,-0.8813018798828125,-0.4327850341796875,-0.199432373046875
1701815864687307800,9.082307861328125,-0.88323974609375,-0.4389190673828125,-0.19451904296875
1701815864697260800,9.0922607421875,-0.888275146484375,-0.439697265625,-0.19049072265625
1701815864707213800,9.1022138671875,-0.8912353515625,-0.4417266845703125,-0.1885833740234375
1701815864717166800,9.112166748046874,-0.8927154541015625,-0.44281005859375,-0.1879730224609375
1701815864727120000,9.122119873046875,-0.8886871337890625,-0.4446868896484375,-0.18743896484375
1701815864737073000,9.132072998046874,-0.8815765380859375,-0.446258544921875,-0.1885986328125
1701815864747026000,9.14202587890625,-0.8738250732421875,-0.447906494140625,-0.1888885498046875
1701815864756979000,9.15197900390625,-0.8649444580078125,-0.446685791015625,-0.1877288818359375
1701815864766931000,9.161930908203125,-0.8582305908203125,-0.4443511962890625,-0.19036865234375
1701815864776884000,9.171884033203124,-0.8528900146484375,-0.4427337646484375,-0.1912841796875
1701815864786836700,9.181836669921875,-0.8480987548828125,-0.4403533935546875,-0.19537353515625
1701815864796789800,9.191789794921876,-0.84637451171875,-0.4364471435546875,-0.2010040283203125
1701815864806742800,9.20174267578125,-0.8509979248046875,-0.432952880859375,-0.2086029052734375
1701815864816695800,9.21169580078125,-0.858795166015625,-0.4286346435546875,-0.2129364013671875
1701815864826648800,9.22164892578125,-0.863037109375,-0.4235687255859375,-0.221343994140625
1701815864836601900,9.231601806640626,-0.8672027587890625,-0.4228973388671875,-0.2249603271484375
1701815864846555000,9.241554931640625,-0.868927001953125,-0.42327880859375,-0.2299957275390625
1701815864856508000,9.2515078125,-0.877838134765625,-0.418365478515625,-0.228515625
1701815864866460000,9.2614599609375,-0.8810577392578125,-0.4155120849609375,-0.22906494140625
1701815864876413000,9.271412841796876,-0.88262939453125,-0.41571044921875,-0.2303466796875
1701815864886366000,9.281365966796875,-0.88348388671875,-0.41448974609375,-0.2332763671875
1701815864896319000,9.291319091796876,-0.8857421875,-0.4127960205078125,-0.2347412109375
1701815864906272000,9.30127197265625,-0.88446044921875,-0.4105377197265625,-0.238006591796875
1701815864916225000,9.31122509765625,-0.885772705078125,-0.4074859619140625,-0.2387237548828125
1701815864926178000,9.321177978515625,-0.8883056640625,-0.4037628173828125,-0.241424560546875
1701815864936131000,9.331131103515625,-0.8894500732421875,-0.404266357421875,-0.24322509765625
1701815864946084000,9.341083984375,-0.89306640625,-0.4050750732421875,-0.2459869384765625
1701815864956035800,9.351035888671875,-0.8950042724609375,-0.40447998046875,-0.2471923828125
1701815864965988900,9.36098876953125,-0.89422607421875,-0.4030303955078125,-0.2505950927734375
1701815864975942000,9.37094189453125,-0.8961029052734375,-0.4043121337890625,-0.251129150390625
1701815864985895000,9.38089501953125,-0.900390625,-0.404388427734375,-0.2522125244140625
1701815864995848000,9.390847900390625,-0.905731201171875,-0.4021759033203125,-0.2526092529296875
1701815865005801000,9.400801025390624,-0.9071197509765625,-0.4025421142578125,-0.25567626953125
1701815865015754000,9.41075390625,-0.9041290283203125,-0.4012451171875,-0.259368896484375
1701815865025707000,9.42070703125,-0.896728515625,-0.3991546630859375,-0.264251708984375
1701815865035660000,9.430659912109375,-0.88616943359375,-0.400146484375,-0.266876220703125
1701815865045611800,9.44061181640625,-0.8758087158203125,-0.4041748046875,-0.2713470458984375
1701815865055564800,9.450564697265625,-0.86737060546875,-0.4036712646484375,-0.2672576904296875
1701815865065517800,9.460517822265626,-0.8574981689453125,-0.405029296875,-0.26104736328125
1701815865075470800,9.470470947265625,-0.853179931640625,-0.4000396728515625,-0.2567138671875
1701815865085423900,9.480423828125,-0.862213134765625,-0.3995208740234375,-0.25274658203125
1701815865095377200,9.490377197265625,-0.8816680908203125,-0.40093994140625,-0.2538604736328125
1701815865105330200,9.500330078125,-0.8914794921875,-0.3966827392578125,-0.2537841796875
1701815865115283200,9.510283203125,-0.894256591796875,-0.394500732421875,-0.2574920654296875
1701815865125236200,9.520236328125,-0.8940582275390625,-0.3962554931640625,-0.2617340087890625
1701815865135188200,9.530188232421875,-0.89422607421875,-0.3983306884765625,-0.2669677734375
1701815865145141200,9.540141357421875,-0.8943634033203125,-0.3988494873046875,-0.2670440673828125
1701815865155094300,9.55009423828125,-0.892730712890625,-0.3978271484375,-0.2627410888671875
1701815865165047300,9.56004736328125,-0.8934478759765625,-0.399383544921875,-0.2562408447265625
1701815865175000000,9.57,-0.8930206298828125,-0.4001007080078125,-0.2491455078125
1701815865184953000,9.579953125,-0.8964691162109375,-0.3999481201171875,-0.24945068359375
1701815865194906000,9.589906005859374,-0.8961334228515625,-0.402740478515625,-0.254364013671875
1701815865204859100,9.599859130859375,-0.8895721435546875,-0.4056243896484375,-0.2597503662109375
1701815865214812200,9.609812255859374,-0.88409423828125,-0.4060516357421875,-0.2639007568359375
1701815865224764200,9.61976416015625,-0.8814697265625,-0.4078216552734375,-0.2656097412109375
1701815865234717200,9.62971728515625,-0.8789825439453125,-0.41021728515625,-0.2655792236328125
1701815865244670200,9.639670166015625,-0.876190185546875,-0.4091949462890625,-0.2628936767578125
1701815865254623200,9.649623291015626,-0.8736724853515625,-0.40753173828125,-0.2614898681640625
1701815865264576300,9.659576171875,-0.8719482421875,-0.404754638671875,-0.263519287109375
1701815865274529300,9.669529296875,-0.8701934814453125,-0.40380859375,-0.261260986328125
1701815865284482300,9.679482421875,-0.868438720703125,-0.3997344970703125,-0.262725830078125
1701815865294435300,9.689435302734376,-0.8695831298828125,-0.3998565673828125,-0.264862060546875
1701815865304388400,9.699388427734375,-0.8705596923828125,-0.403289794921875,-0.2679290771484375
1701815865314340000,9.709340087890626,-0.8763885498046875,-0.4022216796875,-0.2720184326171875
1701815865324293000,9.719293212890625,-0.8734130859375,-0.4000701904296875,-0.2720794677734375
1701815865334246100,9.72924609375,-0.8681488037109375,-0.4004058837890625,-0.2736968994140625
1701815865344199200,9.73919921875,-0.868011474609375,-0.4041748046875,-0.27508544921875
1701815865354152200,9.749152099609375,-0.8675689697265625,-0.4041900634765625,-0.2728424072265625
1701815865364105200,9.759105224609375,-0.8672637939453125,-0.4017486572265625,-0.2686920166015625
1701815865374058200,9.769058349609375,-0.865936279296875,-0.4037628173828125,-0.271331787109375
1701815865384011300,9.77901123046875,-0.8637237548828125,-0.403411865234375,-0.2732086181640625
1701815865393964000,9.788964111328125,-0.8641204833984375,-0.405426025390625,-0.2772216796875
1701815865403917000,9.7989169921875,-0.863067626953125,-0.4066925048828125,-0.2774810791015625
1701815865413869000,9.808869140625,-0.8632659912109375,-0.4062652587890625,-0.280120849609375
1701815865423822000,9.818822021484374,-0.8630523681640625,-0.404876708984375,-0.2797088623046875
1701815865433775000,9.828775146484375,-0.8655242919921875,-0.406005859375,-0.2803955078125
1701815865443728100,9.83872802734375,-0.8677978515625,-0.405670166015625,-0.2788848876953125
1701815865453681200,9.84868115234375,-0.8699188232421875,-0.4047698974609375,-0.2757720947265625
1701815865463634200,9.85863427734375,-0.8710784912109375,-0.4062347412109375,-0.2728729248046875
1701815865473587200,9.868587158203125,-0.869293212890625,-0.406158447265625,-0.2703857421875
1701815865483540000,9.8785400390625,-0.864471435546875,-0.4074554443359375,-0.2662200927734375
1701815865493493000,9.888492919921875,-0.8645477294921875,-0.40948486328125,-0.2626800537109375
1701815865503445200,9.8984453125,-0.866943359375,-0.40972900390625,-0.2573089599609375
1701815865513398300,9.908398193359375,-0.871856689453125,-0.411468505859375,-0.250518798828125
1701815865523351300,9.918351318359376,-0.8791046142578125,-0.414337158203125,-0.24578857421875
1701815865533304300,9.92830419921875,-0.88055419921875,-0.41650390625,-0.240478515625
1701815865543257300,9.93825732421875,-0.8834991455078125,-0.4170074462890625,-0.2388458251953125
1701815865553210400,9.94821044921875,-0.88507080078125,-0.4178924560546875,-0.2398834228515625
1701815865563163400,9.958163330078126,-0.88623046875,-0.4179534912109375,-0.239044189453125
1701815865573116200,9.9681162109375,-0.88446044921875,-0.418609619140625,-0.2363433837890625
1701815865583069200,9.978069091796876,-0.8820648193359375,-0.42047119140625,-0.2376251220703125
1701815865593021200,9.988021240234374,-0.8762664794921875,-0.42193603515625,-0.236328125
1701815865602974200,9.99797412109375,-0.87078857421875,-0.4231414794921875,-0.2347412109375
1701815865612927200,10.00792724609375,-0.8664093017578125,-0.422149658203125,-0.231536865234375
1701815865622880300,10.01788037109375,-0.863861083984375,-0.4222412109375,-0.2293548583984375
1701815865632833300,10.027833251953124,-0.861114501953125,-0.421234130859375,-0.22930908203125
1701815865642786300,10.037786376953125,-0.8598785400390625,-0.4201202392578125,-0.229461669921875
1701815865652739300,10.0477392578125,-0.8591461181640625,-0.4182281494140625,-0.23089599609375
1701815865662692000,10.057692138671875,-0.8612213134765625,-0.4202728271484375,-0.234161376953125
1701815865672645000,10.06764501953125,-0.860626220703125,-0.4198455810546875,-0.2354278564453125
1701815865682597000,10.07759716796875,-0.8563232421875,-0.417205810546875,-0.238128662109375
1701815865692550100,10.087550048828126,-0.85467529296875,-0.41912841796875,-0.2411041259765625
1701815865702503200,10.097503173828125,-0.856353759765625,-0.4201507568359375,-0.2462921142578125
1701815865712456200,10.107456298828126,-0.8564605712890625,-0.4173583984375,-0.244964599609375
1701815865722409200,10.1174091796875,-0.8602752685546875,-0.4142608642578125,-0.242462158203125
1701815865732362200,10.1273623046875,-0.862274169921875,-0.4150848388671875,-0.241851806640625
1701815865742315000,10.13731494140625,-0.86651611328125,-0.4152374267578125,-0.2413787841796875
1701815865752268000,10.14726806640625,-0.86676025390625,-0.4139862060546875,-0.2397308349609375
1701815865762221000,10.157220947265625,-0.869598388671875,-0.413360595703125,-0.238922119140625
1701815865772173000,10.167173095703125,-0.8717498779296875,-0.415802001953125,-0.244415283203125
1701815865782126000,10.1771259765625,-0.876495361328125,-0.4166717529296875,-0.24334716796875
1701815865792079000,10.1870791015625,-0.875640869140625,-0.4144134521484375,-0.244476318359375
1701815865802032000,10.1970322265625,-0.87872314453125,-0.4142913818359375,-0.246734619140625
1701815865811985200,10.206985107421875,-0.88336181640625,-0.4126434326171875,-0.251678466796875
1701815865821938200,10.216938232421874,-0.8834075927734375,-0.409942626953125,-0.2516632080078125
1701815865831891000,10.226890869140625,-0.8839874267578125,-0.4068756103515625,-0.2476348876953125
1701815865841844000,10.236843994140624,-0.887603759765625,-0.405975341796875,-0.245697021484375
1701815865851797000,10.246796875,-0.8903961181640625,-0.403717041015625,-0.24444580078125
1701815865861749200,10.256749267578124,-0.891937255859375,-0.4021759033203125,-0.2448577880859375
1701815865871702300,10.266702392578125,-0.892608642578125,-0.4006500244140625,-0.246551513671875
1701815865881655300,10.2766552734375,-0.8955535888671875,-0.402313232421875,-0.2488250732421875
1701815865891608300,10.2866083984375,-0.8995819091796875,-0.402618408203125,-0.2496795654296875
1701815865901561300,10.296561279296874,-0.900848388671875,-0.40142822265625,-0.2507781982421875
1701815865911514400,10.306514404296875,-0.9005889892578125,-0.398193359375,-0.25177001953125
1701815865921467100,10.316467041015626,-0.89813232421875,-0.397064208984375,-0.254608154296875
1701815865931420200,10.326420166015625,-0.8946533203125,-0.395721435546875,-0.2561798095703125
1701815865941373200,10.336373291015626,-0.89031982421875,-0.391082763671875,-0.2572174072265625
1701815865951325200,10.3463251953125,-0.883880615234375,-0.3903961181640625,-0.2563323974609375
1701815865961278200,10.3562783203125,-0.88079833984375,-0.3935089111328125,-0.2535400390625
1701815865971231200,10.366231201171875,-0.881927490234375,-0.396514892578125,-0.24847412109375
1701815865981184300,10.376184326171876,-0.882568359375,-0.397705078125,-0.247314453125
1701815865991137300,10.38613720703125,-0.88360595703125,-0.4003448486328125,-0.24847412109375
1701815866001090000,10.396090087890625,-0.884185791015625,-0.4020538330078125,-0.2472991943359375
1701815866011043000,10.40604296875,-0.885223388671875,-0.40447998046875,-0.2487030029296875
1701815866020996000,10.41599609375,-0.883880615234375,-0.4054412841796875,-0.2484588623046875
1701815866030949000,10.42594921875,-0.8841094970703125,-0.403594970703125,-0.2435455322265625
1701815866040901000,10.435901123046875,-0.8827056884765625,-0.40264892578125,-0.2463836669921875
1701815866050854100,10.445854248046874,-0.8820343017578125,-0.404022216796875,-0.248077392578125
1701815866060807200,10.45580712890625,-0.877655029296875,-0.4044342041015625,-0.2486419677734375
1701815866070760200,10.46576025390625,-0.876983642578125,-0.40521240234375,-0.24774169921875
1701815866080713200,10.475713134765625,-0.880279541015625,-0.4037628173828125,-0.2437896728515625
1701815866090666000,10.485666015625,-0.8867950439453125,-0.40533447265625,-0.246612548828125
1701815866100619000,10.495618896484375,-0.890960693359375,-0.4023590087890625,-0.2486114501953125
1701815866110572000,10.505572021484374,-0.896514892578125,-0.39837646484375,-0.249267578125
1701815866120525000,10.515525146484375,-0.901214599609375,-0.39923095703125,-0.24957275390625
1701815866130478000,10.52547802734375,-0.90032958984375,-0.3984375,-0.2491302490234375
1701815866140430000,10.53543017578125,-0.89056396484375,-0.3968048095703125,-0.245819091796875
1701815866150383000,10.545383056640626,-0.879852294921875,-0.400848388671875,-0.2431182861328125
1701815866160336100,10.555336181640625,-0.8690643310546875,-0.406829833984375,-0.239013671875
1701815866170289200,10.5652890625,-0.8657684326171875,-0.4094390869140625,-0.237579345703125
1701815866180242200,10.5752421875,-0.8704071044921875,-0.4102020263671875,-0.23675537109375
1701815866190195200,10.5851953125,-0.8774871826171875,-0.40966796875,-0.2359771728515625
1701815866200148200,10.595148193359375,-0.8783416748046875,-0.4071807861328125,-0.2393341064453125
1701815866210101200,10.605101318359376,-0.879364013671875,-0.4060211181640625,-0.2426910400390625
1701815866220053200,10.61505322265625,-0.8730621337890625,-0.4050445556640625,-0.246673583984375
1701815866230006000,10.625006103515625,-0.872406005859375,-0.4037628173828125,-0.248199462890625
1701815866239959000,10.634958984375,-0.8860321044921875,-0.401458740234375,-0.25897216796875
1701815866249912000,10.644912109375,-0.9079132080078125,-0.394012451171875,-0.267822265625
1701815866259865000,10.654864990234374,-0.93560791015625,-0.385101318359375,-0.2830047607421875
1701815866269818000,10.664818115234375,-0.9523773193359375,-0.376556396484375,-0.2887115478515625
1701815866279771100,10.674771240234374,-0.9411163330078125,-0.3757781982421875,-0.2876129150390625
1701815866289724200,10.68472412109375,-0.9196624755859375,-0.3856658935546875,-0.2776641845703125
1701815866299677200,10.69467724609375,-0.8982696533203125,-0.394989013671875,-0.2684173583984375
1701815866309630200,10.704630126953125,-0.8719024658203125,-0.4071502685546875,-0.25787353515625
1701815866319582000,10.71458203125,-0.8525238037109375,-0.415618896484375,-0.248046875
1701815866329535000,10.724534912109375,-0.845611572265625,-0.4234619140625,-0.2382354736328125
1701815866339488000,10.734488037109376,-0.84539794921875,-0.42877197265625,-0.226806640625
1701815866349441000,10.74444091796875,-0.8508758544921875,-0.43194580078125,-0.2253265380859375
1701815866359394000,10.75439404296875,-0.8544769287109375,-0.4330902099609375,-0.2297821044921875
1701815866369347000,10.76434716796875,-0.8531951904296875,-0.4328765869140625,-0.2386016845703125
1701815866379300000,10.774300048828126,-0.85504150390625,-0.43206787109375,-0.2461090087890625
1701815866389253000,10.784253173828125,-0.8543701171875,-0.4311676025390625,-0.2445526123046875
1701815866399206100,10.7942060546875,-0.8529510498046875,-0.4294891357421875,-0.2415008544921875
1701815866409158000,10.804157958984375,-0.8459014892578125,-0.4296112060546875,-0.238494873046875
1701815866419111000,10.81411083984375,-0.8427886962890625,-0.43280029296875,-0.2347412109375
1701815866429064000,10.82406396484375,-0.839599609375,-0.435150146484375,-0.2324066162109375
1701815866439017000,10.834016845703125,-0.8358917236328125,-0.4353485107421875,-0.228424072265625
1701815866448970000,10.843969970703125,-0.8367462158203125,-0.43701171875,-0.2261962890625
1701815866458923000,10.853923095703125,-0.8394012451171875,-0.4375,-0.2250213623046875
1701815866468876000,10.8638759765625,-0.8406829833984375,-0.4403228759765625,-0.2225799560546875
1701815866478829000,10.8738291015625,-0.8433990478515625,-0.4413604736328125,-0.21978759765625
1701815866488782000,10.883781982421874,-0.8455963134765625,-0.44122314453125,-0.219757080078125
1701815866498734000,10.893734130859375,-0.8530120849609375,-0.442626953125,-0.2210693359375
1701815866508687000,10.90368701171875,-0.8661956787109375,-0.441375732421875,-0.2208404541015625
1701815866518640000,10.91364013671875,-0.8745269775390625,-0.431304931640625,-0.2212982177734375
1701815866528593200,10.92359326171875,-0.8755950927734375,-0.4267120361328125,-0.22344970703125
1701815866538546200,10.933546142578125,-0.876953125,-0.4278106689453125,-0.2277374267578125
1701815866548499200,10.943499267578124,-0.8775177001953125,-0.427459716796875,-0.235260009765625
1701815866558452200,10.9534521484375,-0.8819122314453125,-0.42474365234375,-0.2363433837890625
1701815866568405200,10.9634052734375,-0.8848419189453125,-0.4227752685546875,-0.2355194091796875
1701815866578358300,10.973358154296875,-0.887420654296875,-0.4227447509765625,-0.235626220703125
1701815866588310000,10.98331005859375,-0.8858489990234375,-0.42413330078125,-0.2336883544921875
1701815866598263000,10.993262939453125,-0.8832550048828125,-0.4251556396484375,-0.23101806640625
1701815866608216000,11.003216064453126,-0.8769989013671875,-0.4256134033203125,-0.234283447265625
1701815866618169000,11.013169189453125,-0.8756103515625,-0.424041748046875,-0.2360687255859375
1701815866628122000,11.0231220703125,-0.8769378662109375,-0.4225616455078125,-0.23712158203125
1701815866638075100,11.0330751953125,-0.880706787109375,-0.422027587890625,-0.239105224609375
1701815866648028200,11.043028076171876,-0.8835296630859375,-0.4187164306640625,-0.240325927734375
1701815866657981200,11.052981201171875,-0.8861846923828125,-0.4158477783203125,-0.2394256591796875
1701815866667934200,11.062934326171876,-0.8849334716796875,-0.4124603271484375,-0.24298095703125
1701815866677886000,11.072885986328124,-0.8845367431640625,-0.410400390625,-0.247528076171875
1701815866687839000,11.0828388671875,-0.884674072265625,-0.413909912109375,-0.2523193359375
1701815866697792000,11.0927919921875,-0.881622314453125,-0.4151611328125,-0.2546844482421875
1701815866707745000,11.1027451171875,-0.8766326904296875,-0.414886474609375,-0.250885009765625
1701815866717698000,11.112697998046874,-0.8739013671875,-0.4153594970703125,-0.244110107421875
1701815866727651000,11.122651123046875,-0.870635986328125,-0.4189300537109375,-0.2386474609375
1701815866737604000,11.13260400390625,-0.8685302734375,-0.4169921875,-0.23980712890625
1701815866747557000,11.14255712890625,-0.8650054931640625,-0.4168701171875,-0.2432403564453125
1701815866757510100,11.15251025390625,-0.8671875,-0.4159393310546875,-0.24639892578125
1701815866767462000,11.1624619140625,-0.871246337890625,-0.4124603271484375,-0.2483367919921875
1701815866777415000,11.172414794921876,-0.876068115234375,-0.413055419921875,-0.24859619140625
1701815866787368000,11.182367919921875,-0.8750762939453125,-0.411651611328125,-0.24822998046875
1701815866797321000,11.192321044921876,-0.8754119873046875,-0.4119873046875,-0.2457122802734375
1701815866807274000,11.20227392578125,-0.8718719482421875,-0.4110565185546875,-0.2459564208984375
1701815866817227000,11.21222705078125,-0.8704071044921875,-0.41033935546875,-0.2469024658203125
1701815866827180000,11.222179931640625,-0.8754730224609375,-0.4124298095703125,-0.2493133544921875
1701815866837133000,11.232133056640626,-0.87628173828125,-0.4110107421875,-0.250518798828125
1701815866847086000,11.242086181640625,-0.875,-0.4091644287109375,-0.25006103515625
1701815866857038000,11.2520380859375,-0.873931884765625,-0.40765380859375,-0.2528076171875
1701815866866991000,11.2619912109375,-0.8739013671875,-0.410888671875,-0.254730224609375
1701815866876944100,11.271944091796875,-0.8744964599609375,-0.4111785888671875,-0.256256103515625
1701815866886897200,11.281897216796875,-0.87664794921875,-0.4076995849609375,-0.2578582763671875
1701815866896850200,11.29185009765625,-0.88067626953125,-0.4078521728515625,-0.2587738037109375
1701815866906803200,11.30180322265625,-0.8817138671875,-0.4102935791015625,-0.255889892578125
1701815866916756200,11.311756103515625,-0.8821258544921875,-0.410430908203125,-0.2545623779296875
1701815866926709200,11.321709228515624,-0.8785400390625,-0.4120635986328125,-0.2521820068359375
1701815866936662300,11.331662353515625,-0.8758392333984375,-0.4135284423828125,-0.248016357421875
1701815866946614000,11.341614013671874,-0.879974365234375,-0.415374755859375,-0.2467041015625
1701815866956567000,11.351567138671875,-0.8822784423828125,-0.415618896484375,-0.24395751953125
1701815866966520000,11.36152001953125,-0.88330078125,-0.4139404296875,-0.243408203125
1701815866976473000,11.37147314453125,-0.884185791015625,-0.412384033203125,-0.245849609375
1701815866986426000,11.381426025390626,-0.885009765625,-0.4141693115234375,-0.241485595703125
1701815866996379100,11.391379150390625,-0.885009765625,-0.4131011962890625,-0.2424468994140625
1701815867006332200,11.401332275390626,-0.883941650390625,-0.41375732421875,-0.2418365478515625
1701815867016285200,11.41128515625,-0.88214111328125,-0.4160614013671875,-0.23748779296875
1701815867026238200,11.42123828125,-0.8751983642578125,-0.4155426025390625,-0.2362823486328125
1701815867036190000,11.43118994140625,-0.874969482421875,-0.4176025390625,-0.2389984130859375
1701815867046143000,11.44114306640625,-0.876007080078125,-0.418914794921875,-0.2383270263671875
1701815867056096000,11.451095947265625,-0.8720855712890625,-0.415771484375,-0.2342376708984375
1701815867066049000,11.461049072265626,-0.868896484375,-0.4144287109375,-0.232879638671875
1701815867076002000,11.471001953125,-0.872406005859375,-0.4143829345703125,-0.23675537109375
1701815867085955000,11.480955078125,-0.8726959228515625,-0.4154815673828125,-0.237060546875
1701815867095907800,11.490907958984375,-0.8738555908203125,-0.4152374267578125,-0.2371826171875
1701815867105860900,11.50086083984375,-0.87158203125,-0.417022705078125,-0.2366790771484375
1701815867115814000,11.51081396484375,-0.87152099609375,-0.4163055419921875,-0.2367095947265625
1701815867125766000,11.520765869140625,-0.8677978515625,-0.417266845703125,-0.23614501953125
1701815867135719000,11.530718994140624,-0.864654541015625,-0.4188690185546875,-0.2373046875
1701815867145672000,11.540671875,-0.8623504638671875,-0.419158935546875,-0.2401885986328125
1701815867155625000,11.550625,-0.86004638671875,-0.421966552734375,-0.2390594482421875
1701815867165578000,11.560577880859375,-0.86077880859375,-0.41827392578125,-0.2373199462890625
1701815867175531000,11.570531005859374,-0.862396240234375,-0.418701171875,-0.23797607421875
1701815867185484000,11.580484130859375,-0.8735809326171875,-0.4178619384765625,-0.2408447265625
1701815867195437000,11.59043701171875,-0.8855743408203125,-0.4134521484375,-0.2427825927734375
1701815867205390000,11.60039013671875,-0.8928680419921875,-0.4102325439453125,-0.2467498779296875
1701815867215341800,11.610341796875,-0.8904571533203125,-0.407073974609375,-0.2477264404296875
1701815867225294800,11.620294921875,-0.884002685546875,-0.412353515625,-0.2493743896484375
1701815867235247900,11.630247802734376,-0.8798980712890625,-0.414825439453125,-0.25018310546875
1701815867245201000,11.640200927734375,-0.877288818359375,-0.412811279296875,-0.248321533203125
1701815867255154000,11.65015380859375,-0.8774261474609375,-0.4136810302734375,-0.2439727783203125
1701815867265107000,11.66010693359375,-0.8756561279296875,-0.4159088134765625,-0.2412261962890625
1701815867275060000,11.67006005859375,-0.8777923583984375,-0.415374755859375,-0.2423553466796875
1701815867285013000,11.680012939453125,-0.879730224609375,-0.41339111328125,-0.245758056640625
1701815867294966000,11.689966064453126,-0.8818359375,-0.4131011962890625,-0.2495269775390625
1701815867304917800,11.699917724609374,-0.8806304931640625,-0.4095306396484375,-0.251068115234375
1701815867314870800,11.709870849609375,-0.8824005126953125,-0.408538818359375,-0.2551422119140625
1701815867324823800,11.71982373046875,-0.8831787109375,-0.4080657958984375,-0.255218505859375
1701815867334776800,11.72977685546875,-0.8838043212890625,-0.407745361328125,-0.25335693359375
1701815867344729900,11.739729736328124,-0.88165283203125,-0.4046630859375,-0.25213623046875
1701815867354683000,11.749682861328125,-0.878326416015625,-0.4058990478515625,-0.254638671875
1701815867364636000,11.759635986328124,-0.8752593994140625,-0.4078521728515625,-0.25299072265625
1701815867374589000,11.7695888671875,-0.874298095703125,-0.4088287353515625,-0.2509002685546875
1701815867384542000,11.7795419921875,-0.8753814697265625,-0.4091339111328125,-0.2478179931640625
1701815867394493700,11.78949365234375,-0.8798370361328125,-0.411956787109375,-0.2474365234375
1701815867404446700,11.79944677734375,-0.8828277587890625,-0.41265869140625,-0.2469329833984375
1701815867414399700,11.809399658203125,-0.884368896484375,-0.4115753173828125,-0.245880126953125
1701815867424352800,11.819352783203126,-0.88409423828125,-0.4112396240234375,-0.2459869384765625
1701815867434305800,11.829305908203125,-0.8836669921875,-0.4107666015625,-0.2462005615234375
1701815867444258800,11.8392587890625,-0.886016845703125,-0.41009521484375,-0.2471160888671875
1701815867454211800,11.8492119140625,-0.8850250244140625,-0.4104766845703125,-0.2469329833984375
1701815867464164900,11.859164794921876,-0.8807830810546875,-0.4117889404296875,-0.2449493408203125
1701815867474118000,11.869117919921875,-0.8724365234375,-0.4123077392578125,-0.2405853271484375
1701815867484070000,11.87906982421875,-0.8629150390625,-0.41644287109375,-0.235809326171875
1701815867494023000,11.88902294921875,-0.861114501953125,-0.41815185546875,-0.2349853515625
1701815867503976000,11.898975830078125,-0.8643951416015625,-0.4205322265625,-0.232879638671875
1701815867513929000,11.908928955078125,-0.873382568359375,-0.419219970703125,-0.2351226806640625
1701815867523882000,11.918882080078125,-0.87835693359375,-0.4176483154296875,-0.2391815185546875
1701815867533835000,11.9288349609375,-0.876312255859375,-0.415283203125,-0.2427520751953125
1701815867543788000,11.9387880859375,-0.8716583251953125,-0.4171295166015625,-0.245513916015625
1701815867553741000,11.948740966796874,-0.86236572265625,-0.4178466796875,-0.248870849609375
1701815867563694000,11.958694091796875,-0.8570404052734375,-0.4181976318359375,-0.2536773681640625
1701815867573645800,11.968645751953124,-0.8542022705078125,-0.41705322265625,-0.2541351318359375
1701815867583598800,11.978598876953125,-0.8544158935546875,-0.4152374267578125,-0.253570556640625
1701815867593552000,11.9885517578125,-0.85479736328125,-0.415283203125,-0.2562103271484375
1701815867603505000,11.9985048828125,-0.8609161376953125,-0.4117431640625,-0.254425048828125
1701815867613458000,12.0084580078125,-0.86968994140625,-0.4079742431640625,-0.2523040771484375
1701815867623411000,12.018410888671875,-0.87823486328125,-0.4069061279296875,-0.253204345703125
1701815867633364000,12.028364013671874,-0.8857269287109375,-0.405242919921875,-0.2531280517578125
1701815867643317000,12.03831689453125,-0.8951416015625,-0.4034423828125,-0.2540130615234375
1701815867653270000,12.04827001953125,-0.896392822265625,-0.402740478515625,-0.2556915283203125
1701815867663221800,12.0582216796875,-0.893646240234375,-0.40191650390625,-0.25616455078125
1701815867673174800,12.0681748046875,-0.884735107421875,-0.4038848876953125,-0.2584075927734375
1701815867683127800,12.0781279296875,-0.879486083984375,-0.405242919921875,-0.2583160400390625
1701815867693080800,12.088080810546876,-0.88006591796875,-0.404754638671875,-0.257354736328125
1701815867703033900,12.098033935546875,-0.880950927734375,-0.4041900634765625,-0.257904052734375
1701815867712987000,12.10798681640625,-0.8842010498046875,-0.3991241455078125,-0.25897216796875
1701815867722940000,12.11793994140625,-0.8855743408203125,-0.3956298828125,-0.2645416259765625
1701815867732893000,12.127892822265625,-0.8841400146484375,-0.3917083740234375,-0.274810791015625
1701815867742846000,12.137845947265625,-0.8801422119140625,-0.386871337890625,-0.292236328125
1701815867752798000,12.1477978515625,-0.87298583984375,-0.3819427490234375,-0.3137054443359375
1701815867762751000,12.1577509765625,-0.8573760986328125,-0.3830413818359375,-0.3253326416015625
1701815867772704000,12.1677041015625,-0.8563385009765625,-0.3923797607421875,-0.3152923583984375
1701815867782657000,12.177656982421874,-0.8673553466796875,-0.398834228515625,-0.2966766357421875
1701815867792610000,12.187610107421875,-0.8768463134765625,-0.40423583984375,-0.2788238525390625
1701815867802563000,12.19756298828125,-0.877716064453125,-0.4079132080078125,-0.2592315673828125
1701815867812516000,12.20751611328125,-0.8795166015625,-0.414581298828125,-0.239532470703125
1701815867822469000,12.21746923828125,-0.885223388671875,-0.422943115234375,-0.2276458740234375
1701815867832422100,12.227422119140625,-0.892364501953125,-0.426605224609375,-0.2213592529296875
1701815867842375000,12.237375,-0.89886474609375,-0.428741455078125,-0.2196197509765625
1701815867852327000,12.247326904296875,-0.9005584716796875,-0.4306182861328125,-0.22003173828125
1701815867862280000,12.257280029296876,-0.8978424072265625,-0.428985595703125,-0.22314453125
1701815867872233000,12.26723291015625,-0.8951568603515625,-0.429229736328125,-0.2255096435546875
1701815867882186000,12.27718603515625,-0.8932952880859375,-0.4307861328125,-0.222442626953125
1701815867892139000,12.287138916015625,-0.889739990234375,-0.4301605224609375,-0.218109130859375
1701815867902092000,12.297092041015626,-0.883331298828125,-0.429779052734375,-0.21380615234375
1701815867912045000,12.307045166015625,-0.8753204345703125,-0.42889404296875,-0.2104949951171875
1701815867921998000,12.316998046875,-0.86376953125,-0.4286041259765625,-0.2104949951171875
1701815867931949800,12.32694970703125,-0.8582916259765625,-0.429107666015625,-0.21417236328125
1701815867941902800,12.33690283203125,-0.85211181640625,-0.432403564453125,-0.217071533203125
1701815867951855900,12.34685595703125,-0.847564697265625,-0.4336395263671875,-0.21612548828125
1701815867961809000,12.356808837890625,-0.845123291015625,-0.43719482421875,-0.2202301025390625
1701815867971762000,12.366761962890624,-0.847137451171875,-0.4377593994140625,-0.2242584228515625
1701815867981715000,12.37671484375,-0.84759521484375,-0.4359130859375,-0.22601318359375
1701815867991668000,12.38666796875,-0.8511505126953125,-0.43377685546875,-0.227752685546875
1701815868001621000,12.39662109375,-0.857086181640625,-0.43231201171875,-0.231475830078125
1701815868011574000,12.406573974609374,-0.8578338623046875,-0.4300689697265625,-0.2376708984375
1701815868021526800,12.41652685546875,-0.8592071533203125,-0.4278411865234375,-0.246826171875
1701815868031478800,12.426478759765626,-0.865447998046875,-0.4225311279296875,-0.2512359619140625
1701815868041431800,12.436431884765625,-0.8734283447265625,-0.4204254150390625,-0.2512359619140625
1701815868051384800,12.446384765625,-0.87646484375,-0.4218597412109375,-0.25189208984375
1701815868061337900,12.456337890625,-0.8749542236328125,-0.423858642578125,-0.2506256103515625
1701815868071291000,12.466290771484376,-0.874908447265625,-0.4232940673828125,-0.2503204345703125
1701815868081244000,12.476243896484375,-0.867950439453125,-0.424468994140625,-0.24957275390625
1701815868091197000,12.486197021484376,-0.8624114990234375,-0.4225006103515625,-0.2503814697265625
1701815868101150000,12.49614990234375,-0.8603515625,-0.4216461181640625,-0.25537109375
1701815868111102700,12.506102783203126,-0.8673858642578125,-0.4206085205078125,-0.25982666015625
1701815868121055000,12.516054931640625,-0.87457275390625,-0.417755126953125,-0.2630615234375
1701815868131008000,12.526008056640626,-0.8785552978515625,-0.412506103515625,-0.26446533203125
1701815868140961000,12.5359609375,-0.878448486328125,-0.4106903076171875,-0.2680816650390625
1701815868150914000,12.5459140625,-0.8763885498046875,-0.411834716796875,-0.2683563232421875
1701815868160867000,12.5558671875,-0.8756256103515625,-0.412200927734375,-0.2687530517578125
1701815868170820000,12.565820068359375,-0.8737030029296875,-0.412017822265625,-0.268157958984375
1701815868180773000,12.575773193359375,-0.8741455078125,-0.411651611328125,-0.2655181884765625
1701815868190726000,12.585725830078125,-0.8757781982421875,-0.4127960205078125,-0.2612762451171875
1701815868200679000,12.595678955078125,-0.8775787353515625,-0.4146575927734375,-0.2581329345703125
1701815868210631000,12.605630859375,-0.8772430419921875,-0.415130615234375,-0.25408935546875
1701815868220584000,12.615583984375,-0.8768463134765625,-0.416595458984375,-0.2521209716796875
1701815868230537000,12.625536865234375,-0.8793182373046875,-0.4200592041015625,-0.2482452392578125
1701815868240490000,12.635489990234374,-0.87957763671875,-0.41973876953125,-0.2470550537109375
1701815868250443000,12.645443115234375,-0.8808746337890625,-0.41888427734375,-0.244537353515625
1701815868260396000,12.65539599609375,-0.8782806396484375,-0.419830322265625,-0.243255615234375
1701815868270349000,12.66534912109375,-0.8760986328125,-0.420318603515625,-0.242889404296875
1701815868280301800,12.6753017578125,-0.8779449462890625,-0.4225006103515625,-0.2383880615234375
1701815868290254800,12.6852548828125,-0.878326416015625,-0.423919677734375,-0.2357330322265625
