time,seconds_elapsed,z,y,x
1701815855626455600,0.02145556640625,0.021902619728446007,-0.0036310499787330624,-0.020498159758001566
1701815855636408600,0.03140869140625,0.04857727616429328,0.004427168792486191,-0.00009659224227070808
1701815855646361600,0.041361572265625,0.04598258349597454,0.00797901605516672,-0.00110167763158679
1701815855656314600,0.051314697265625,0.07265899349749087,0.012769757463037967,-0.04255407035201788
1701815855666267600,0.061267578125,0.08290040152668952,0.014629706116020678,-0.05340805732160806
1701815855676220700,0.071220703125,0.07167699672281741,0.045915948000550266,-0.054338323909044264
1701815855686173400,0.08117333984375,0.06107727677524089,0.042530981737375254,-0.05421528205126524
1701815855696125400,0.09112548828125,0.04374269561469555,0.039245968717336654,-0.06827186445444822
1701815855706078500,0.101078369140625,0.025161329263448714,0.030452129147946833,-0.08998013065457343
1701815855716031500,0.111031494140625,0.03917465704679489,0.035841713231801985,-0.09152546040043234
1701815855725984500,0.120984619140625,0.035980244919657706,0.05255202501416206,-0.09750278124436736
1701815855735937500,0.1309375,0.032923195436596865,0.04464052123725414,-0.08329232345372438
1701815855745890600,0.140890625,0.04344225136339664,0.04403817142993211,-0.08380407236814498
1701815855755843600,0.150843505859375,0.04366846133470535,0.06295183847546577,-0.06449921404793858
1701815855765795600,0.160795654296875,0.023639818784594535,0.06305968276411295,-0.05783844098448753
1701815855775748600,0.17074853515625,-0.016926000359654424,0.06123743577301502,-0.057965136104077095
1701815855785701600,0.18070166015625,-0.05199614469707012,0.045021921770274635,-0.029353520256280897
1701815855795654700,0.190654541015625,-0.07178980944752693,0.040025720918178555,-0.031098318096995353
1701815855805607700,0.200607666015625,-0.0893500160574913,0.049615971562266346,-0.042567514355480666
1701815855815560700,0.210560791015625,-0.13416530933976173,0.03235445563793182,-0.03189268334507942
1701815855825513700,0.220513671875,-0.1284282269924879,0.019906185214221477,-0.052406040672212835
1701815855835466500,0.230466552734375,-0.07508242125213145,0.012601999680697917,-0.06298690978884697
1701815855845418500,0.24041845703125,-0.05175415263473987,0.011100655207037924,-0.0626158845193684
1701815855855371500,0.25037158203125,-0.015548866787552833,-0.0010074234768748284,-0.028330168557912108
1701815855865324500,0.260324462890625,0.00528816953599453,0.016537001042068004,0.002145925987511873
1701815855875277600,0.270277587890625,0.028797639939188956,0.023737726201117037,0.030287147844582793
1701815855885230600,0.280230712890625,-0.014611878198385237,0.018985563237965106,0.03487520628720522
1701815855895183600,0.29018359375,-0.050283495560288424,-0.01247252808213234,0.05067702492251992
1701815855905136600,0.30013671875,-0.045157238587737084,-0.020092647697031497,0.0152158354409039
1701815855915089700,0.310089599609375,-0.011930091768503188,-0.01624094070494175,0.022166385231167075
1701815855925041400,0.32004150390625,0.01685994938611984,-0.06413695660680532,0.01905336777716875
1701815855934994400,0.329994384765625,0.050312721654772755,-0.07732756983041762,0.03932414852008223
1701815855944947500,0.339947509765625,0.10790390987992286,-0.09415566277354954,0.026330665303766727
1701815855954900500,0.349900390625,0.15983867977857588,-0.11364216127097607,0.051748891937732695
1701815855964853500,0.359853515625,0.20077508580088615,-0.1047562595039606,0.09075798315927386
1701815855974806500,0.369806640625,0.2247451594531536,-0.10632482399493455,0.11392287790849805
1701815855984759600,0.379759521484375,0.252146961119771,-0.13145049742311238,0.10961144445016979
1701815855994712600,0.389712646484375,0.23958675475418567,-0.1264841071873903,0.12501213493868707
1701815856004664600,0.39966455078125,0.2432189737766981,-0.11894640515893697,0.1302943131253123
1701815856014617300,0.409617431640625,0.24050328507721422,-0.10486790318489074,0.10869228377863764
1701815856024570400,0.4195703125,0.21094459763765333,-0.07528846521824598,0.09805515443012118
1701815856034523400,0.4295234375,0.1750315727353096,-0.08130611807256936,0.09118877579197288
1701815856044476400,0.439476318359375,0.09518997425734996,-0.07645575543195009,0.05712707784473896
1701815856054429400,0.449429443359375,0.04081424094736576,-0.0759825849622488,0.0487096703723073
1701815856064382500,0.459382568359375,0.03181318836808204,-0.06609861206859349,0.034664924537390465
1701815856074334700,0.469334716796875,0.030591537618637085,-0.050476095522940155,0.007948036395013331
1701815856084287500,0.47928759765625,0.03828735281825065,-0.03011106062531471,0.012190788531303405
1701815856094240500,0.489240478515625,0.03221417038440704,-0.03853314427286386,0.017410422875732183
1701815856104193500,0.499193603515625,0.034551673421263696,-0.02496200729906559,0.018498071981966496
1701815856114146600,0.509146484375,0.03190788091421127,-0.017174422162771225,0.024628099169582127
1701815856124099600,0.519099609375,-0.0005687397986650467,-0.010336100575327873,0.05531915163993835
1701815856134052600,0.529052490234375,0.012117723295092583,0.012630348992347716,0.049745443160831924
1701815856144005600,0.539005615234375,-0.0005740004956722259,0.006795943750441074,0.02519377022832632
1701815856153957400,0.548957275390625,-0.02305880402624607,-0.04090571862310171,-0.01021875780597329
1701815856163910400,0.558910400390625,-0.05386427665650844,-0.020809563794732092,-0.032456016316264866
1701815856173863400,0.568863525390625,-0.05323533110320568,0.020951602613925934,-0.06601765578687191
1701815856183816400,0.57881640625,-0.04268704908192158,0.015199907219409942,-0.09778832018747925
1701815856193769500,0.58876953125,-0.01095452473461628,0.046480011624097824,-0.09800050163343549
1701815856203722500,0.598722412109375,-0.020893150424957273,0.10315028561204671,-0.11380188187733292
1701815856213675500,0.608675537109375,-0.0326081381380558,0.13583645742237568,-0.13631634989380836
1701815856223628500,0.618628662109375,-0.03765665369927883,0.14404548284113405,-0.1478187177695334
1701815856233580300,0.628580322265625,-0.05763911902010441,0.10809914019107818,-0.14022563229203222
1701815856243533300,0.638533203125,-0.06979191362857819,0.09647329206615686,-0.11767375487461686
1701815856253486300,0.648486328125,-0.020165420672297478,0.08998188422024249,-0.058689212594926356
1701815856263439400,0.658439453125,-0.0422632707118988,0.049370764629542825,-0.008900953205674886
1701815856273392400,0.668392333984375,-0.05097790756523609,0.035628655003011225,0.024254735812544823
1701815856283345400,0.678345458984375,-0.08383212941884995,0.02839168948680162,0.0380520827576518
1701815856293298400,0.68829833984375,-0.11106325069367885,0.037226445588469506,0.04258636518642306
1701815856303251500,0.69825146484375,-0.13203706513941288,0.0068348144561052315,0.0589203910022974
1701815856313203500,0.708203369140625,-0.09442951127886771,-0.036656536746025085,0.008051204508543014
1701815856323156500,0.718156494140625,-0.1838888329297304,0.04843815995454788,0.10844181614890694
1701815856333109500,0.728109619140625,-0.1765425618201494,0.02371726793497801,0.10909151222929357
1701815856343062500,0.7380625,-0.13250526717305183,-0.04900573070943355,0.09586509703993797
1701815856353015300,0.748015380859375,-0.11298749675452709,-0.040021337004005904,0.08497428519129753
1701815856362968300,0.75796826171875,-0.08404372634291649,0.0020388123512268064,0.08418532677069306
1701815856372921300,0.76792138671875,0.019741642302274702,-0.023507716837525366,0.01977890557274222
1701815856382874400,0.777874267578125,0.03844868085980415,-0.017530688254535198,-0.021872662981599567
1701815856392826600,0.78782666015625,0.07190905191302299,-0.012396832497417926,-0.02084507349953055
1701815856402779600,0.797779541015625,0.11315993071198463,0.014387421792745589,-0.025769378159195184
1701815856412732400,0.807732421875,0.12349778485298156,0.008375029635429382,-0.02552738609686494
1701815856422685400,0.817685546875,0.11090601430535316,-0.012553484363853932,-0.008530658588558435
1701815856432638500,0.827638427734375,0.07321019763946533,-0.03396656700968742,-0.008523644325882197
1701815856442591500,0.837591552734375,0.07032558211386203,-0.025423487330973146,-0.015667232470214367
1701815856452544500,0.84754443359375,0.07114508180320263,-0.018814006063342093,-0.0017633564107120037
1701815856462496500,0.85749658203125,0.0511427427381277,-0.01685118155777454,0.01683116168305278
1701815856472450600,0.867450439453125,0.04959843590557575,-0.011045710149407386,0.02611439220458269
1701815856482403600,0.877403564453125,0.05873217495381832,0.006321896497905254,0.02874108744636178
1701815856492356600,0.887356689453125,0.08351473403275013,0.00017038813084363936,0.013308102123439311
1701815856502309600,0.8973095703125,0.07842997811436653,0.009926350730657577,0.017555238173902032
1701815856512262400,0.907262451171875,0.06470131249129772,0.005251344656944275,0.015053776746988295
1701815856522214400,0.91721435546875,0.04761982930898666,0.0181754158988595,0.0007752221561968326
1701815856532167400,0.92716748046875,0.013546294793486595,0.0058317748934030526,-0.005680822115391493
1701815856542120400,0.937120361328125,-0.00947743791937828,0.0232905669555068,-0.018785802882164717
1701815856552073500,0.947073486328125,-0.04894844756424427,0.019091361699998376,0.028138883769512176
1701815856562026500,0.957026611328125,-0.05527823510766029,0.012473112604022025,-0.007973755358159541
1701815856571979500,0.9669794921875,-0.06448094773888588,0.03536825050115585,0.007135550968348979
1701815856581932500,0.9769326171875,-0.0823398450344801,0.03505553129017353,0.042104573018848894
1701815856591885600,0.986885498046875,-0.09485621225833893,-0.006651859104633331,-0.00495090040564537
1701815856601837300,0.99683740234375,-0.09370645770132541,-0.006828969237208366,-0.00921644889563322
1701815856611790300,1.006790283203125,-0.09958265625834464,0.028598610235750672,-0.0035633915700018404
1701815856621743400,1.016743408203125,-0.12531564792990685,0.023746494029462335,-0.019838234544545412
1701815856631696400,1.0266962890625,-0.12490063738822936,0.007590893520414829,-0.03493848078176379
1701815856641649400,1.0366494140625,-0.13805237990617752,0.018370061688125133,-0.03937237157598138
1701815856651602400,1.0466025390625,-0.12105915952920913,0.03298515475690365,-0.020242869822680948
1701815856661555500,1.056555419921875,-0.09153028270602226,0.035705811892449854,-0.00926978651806712
1701815856671508500,1.066508544921875,-0.0511994413614273,0.03320025881230831,0.005520955378562212
1701815856681460500,1.07646044921875,-0.03698562256991863,0.04728782087564468,0.02352759058177471
1701815856691413500,1.08641357421875,-0.01830664106309414,0.013259294545650481,0.014469400987774134
1701815856701366500,1.096366455078125,-0.018191490250825882,-0.0004912906482815742,-0.010058598808199168
1701815856711319600,1.106319580078125,0.00023030162453651428,0.0038031916752457617,-0.011582447374612092
1701815856721272600,1.1162724609375,0.03887012114226818,0.013664660476148128,-0.0031879823863506314
1701815856731225600,1.1262255859375,0.05567980164587497,0.025562019018828867,-0.016927461664378644
1701815856741178600,1.1361787109375,0.05613689776360988,0.03634644788354635,-0.019809885232895612
1701815856751131600,1.146131591796875,0.07317161919474602,0.05291121371537447,-0.0317440686546266
1701815856761083400,1.15608349609375,0.06156652159690856,0.058122810883820056,-0.036703590758144854
1701815856771036400,1.166036376953125,0.04486322407722473,0.041840953646600246,-0.017747107484191654
1701815856780989400,1.175989501953125,0.018944938966631887,0.026778701332211493,-0.012694792530685662
1701815856790942500,1.1859423828125,-0.015137363377213477,-0.00040302784293889997,0.003573036181181669
1701815856800895500,1.1958955078125,-0.017542670953273772,-0.009554010286927223,0.028774843585491178
1701815856810848500,1.2058486328125,-0.008908113598823547,-0.021193010154366494,0.013204495618492363
1701815856820801500,1.215801513671875,-0.00025251345634460447,-0.014428338325023651,0.009545534719526768
1701815856830754600,1.225754638671875,0.023998130702972412,-0.022903028942644593,0.01237418227419257
1701815856840707600,1.23570751953125,0.020883213552832604,-0.033271862743794914,0.005863339075446129
1701815856850659300,1.245659423828125,0.02854045030772686,0.007189619243144989,0.02265387648716569
1701815856860612400,1.2556123046875,0.0009989479094743728,0.011773732163012028,0.047068917427957054
1701815856870565400,1.2655654296875,-0.050910103026032445,0.004697802427411079,0.043223494046181435
1701815856880518400,1.275518310546875,-0.07606441802680491,0.011280687949061393,0.035183979975432156
1701815856890471400,1.285471435546875,-0.07698270191550255,0.007011047805845737,0.02384454757645726
1701815856900424400,1.295424560546875,-0.07590893520414829,0.011497253309190273,-0.005104629662632942
1701815856910377500,1.30537744140625,-0.05833879172205925,0.005116320100426674,-0.01099456448405981
1701815856920329500,1.31532958984375,-0.019681436547636984,0.010772738426923752,-0.011830869177728891
1701815856930282200,1.3252822265625,0.018204349732398987,0.00696603962033987,0.0009460486784577369
1701815856940235300,1.3352353515625,0.04910743751823902,0.0013990531429648398,0.03336991629078984
1701815856950188300,1.345188232421875,0.03643091129660606,0.012154255913197994,0.043619653756916524
1701815856960141300,1.355141357421875,0.008036591461300849,0.005741466261446475,0.057775166489928954
1701815856970094300,1.36509423828125,-0.0841951175123453,0.0023889409631490705,0.022648177398741243
1701815856980047400,1.37504736328125,-0.04455167391002178,0.01381225225329399,0.027959727810323236
1701815856990000400,1.38500048828125,-0.027430443239212034,0.04328296914845705,-0.023594372207671403
1701815856999952600,1.39495263671875,-0.062306526309251785,0.019547581034898755,-0.010489099179953337
1701815857009905700,1.40490576171875,-0.03451017236709594,0.01373860249519348,-0.019523615637421606
1701815857019858400,1.4148583984375,-0.013988777863979339,0.05617839881777763,-0.008982347878813744
1701815857029811500,1.4248115234375,0.004642857369780541,0.041949090196192265,-0.0022113924391567704
1701815857039764500,1.434764404296875,0.0006552490383386611,0.020166297455132005,0.007157908930629491
1701815857049717500,1.444717529296875,-0.015338438907265663,0.026789807248115537,-0.012700199358165264
1701815857059670500,1.45467041015625,-0.032331074762344356,0.0292401230096817,-0.01778203266710043
1701815857069623600,1.46462353515625,-0.019093992048501967,0.04477379222810268,-0.030082126791775226
1701815857079575600,1.474575439453125,-0.04074409832060337,0.028595103104412555,-0.02547726334482431
1701815857089527800,1.48452783203125,-0.03251110750436783,0.015248714797198772,-0.02922565609291196
1701815857099480800,1.494480712890625,-0.026802082207798957,-0.008059972336888313,-0.0027168577432632444
1701815857109433900,1.504433837890625,0.019375147077441215,-0.02574059045612812,0.013170008827000855
1701815857119387000,1.514386962890625,0.062322892922163003,0.012040566405653952,0.01733677311763167
1701815857129339600,1.524339599609375,0.08105623496472836,0.011528525230288505,0.04487929842919111
1701815857139292700,1.534292724609375,0.04312193336784839,-0.002526011346280575,0.03209755826741457
1701815857149245700,1.54424560546875,-0.011418050593137741,-0.020609657308459282,0.011604659206420183
1701815857159197700,1.55419775390625,-0.02246142265498638,-0.04373451230823994,0.01627747332304716
1701815857169150700,1.564150634765625,-0.03596680091619491,-0.02670212896466255,-0.005579845958948135
1701815857179103700,1.574103759765625,-0.026318682605028152,-0.02190641912072897,-0.016160276684165
1701815857189056800,1.584056884765625,0.006525602376461028,-0.02380377717465162,-0.026362375616282224
1701815857199009800,1.594009765625,0.03963701386153698,0.01028437038809061,-0.021655951490998266
1701815857208962600,1.603962646484375,0.06326221959888935,0.023856676405668256,-0.029092385102063415
1701815857218915600,1.61391552734375,0.05764671780467033,0.018231530000269412,-0.022877894501388073
1701815857228868600,1.62386865234375,0.012394786670804023,0.018331190982460974,-0.0004439443752169609
1701815857238820900,1.63382080078125,-0.015045008918642997,0.01813303806185722,0.027911797015368937
1701815857248774000,1.64377392578125,-0.03205693399608135,0.02111556100398302,0.02013108001127839
1701815857258727000,1.653726806640625,-0.04122282174825668,0.03262041309773922,0.05450038260295987
1701815857268680000,1.663679931640625,-0.0052998599737882615,0.005899287171661854,0.02613222012221813
1701815857278633000,1.673633056640625,-0.023465046739578246,0.009366378760337829,0.031261253573745484
1701815857288586000,1.6835859375,-0.05241349332630634,0.009090484428405762,0.04436360399201512
1701815857298538800,1.693538818359375,-0.010862170276045798,0.0159685535043478,0.07575052977204322
1701815857308491800,1.70349169921875,-0.024400866284966467,0.020046470467746255,0.07167217441722751
1701815857318444800,1.71344482421875,-0.05000292505323887,0.023846739533543587,0.07488719094097614
1701815857328396800,1.723396728515625,-0.05111468568742275,0.01973345899581909,0.06275514685958623
1701815857338349800,1.733349853515625,-0.03746317695379257,0.023058511765301225,0.05166691274270415
1701815857348302800,1.743302734375,-0.0449514868825674,0.03623012802749872,0.04480608706250787
1701815857358255900,1.753255859375,-0.04395136992931366,0.03640226972401142,0.03212707662284374
1701815857368209000,1.763208984375,-0.05921382099092006,0.024663316613435744,-0.015460457851737736
1701815857378162000,1.773161865234375,-0.06398235056698322,-0.00019669161587953566,-0.020983897448331117
1701815857388114700,1.78311474609375,-0.05262742833793163,0.0013087445110082625,-0.0324022403024137
1701815857398067700,1.793067626953125,-0.04978840551972389,0.04460895705521106,-0.04818491584584117
1701815857408019700,1.803019775390625,-0.04557341817319393,0.042834640859067435,-0.07463380070179701
1701815857417972700,1.81297265625,-0.030409751310944557,0.0554544684574008,-0.06997209250107407
1701815857427925800,1.82292578125,-0.02437806993126869,0.045286417925357814,-0.029023119258135555
1701815857437878800,1.832878662109375,-0.03546060495972633,0.019606910006701946,-0.011367051058262585
1701815857447831800,1.842831787109375,-0.0634434213846922,0.006495207238197327,-0.005406827479600906
1701815857457784800,1.852784912109375,-0.04767828149795532,-0.003523205690085888,-0.018818682238459585
1701815857467737600,1.862737548828125,-0.036676995012164114,0.00419803621172905,-0.033937779306620355
1701815857477690600,1.872690673828125,-0.023787118300795555,-0.01222498306185007,-0.03190890382751822
1701815857487643000,1.882642822265625,-0.0016056816309690475,-0.002384264788031578,-0.05673968596234917
1701815857497596000,1.892595947265625,0.04227963732481003,-0.020453882224857806,-0.0401522699072957
1701815857507549000,1.902548828125,0.07630582556724548,-0.0313794731259346,-0.04460062761828303
1701815857517502000,1.912501953125,0.08673895677626133,-0.05497457598596811,-0.015842589037120342
1701815857527455000,1.922455078125,0.14515665895342825,-0.03015782237648964,0.01933393828421831
1701815857537408000,1.932407958984375,0.1678980675935745,-0.01771101325750351,0.04633125080317259
1701815857547361000,1.942361083984375,0.1737362722277641,-0.06348083078563213,0.04178820054605603
1701815857557313800,1.952313720703125,0.1259533613115549,-0.1032812185153365,0.031566081739217045
1701815857567265800,1.962265869140625,0.09019757279753685,-0.10635054295808076,0.0027270868763327595
1701815857577218800,1.97221875,0.0873801772892475,-0.09503098430335521,-0.036550153762102126
1701815857587171800,1.982171875,0.04164133942127227,-0.13347645029276609,-0.01796571867093444
1701815857597124900,1.992124755859375,0.1566097808599472,-0.13239771514534948,0.09596578093543648
1701815857607078000,2.002077880859375,0.2554033325672149,-0.12706073803156614,0.20151552890464663
1701815857617031000,2.012031005859375,0.25338497848212715,-0.020620178702473638,0.40072701865062116
1701815857626984000,2.02198388671875,0.2437193245142698,-0.07707330280840397,0.45458676526248454
1701815857636937000,2.03193701171875,0.3016062808156013,-0.07004881099909543,0.2721696123205125
1701815857646888700,2.041888671875,0.1443359902203083,0.12013356911689042,0.15973185840323567
1701815857656841700,2.051841796875,-0.0295277077794075,0.0900689779818058,0.05607040839865803
1701815857666794800,2.061794677734375,-0.19574293685257435,0.02409925298988819,0.03128624188452959
1701815857676747800,2.071747802734375,-0.27300679379701615,-0.015413842231035231,0.07996990103274583
1701815857686700800,2.08170068359375,-0.33197920724749563,-0.13889701403677462,0.10058291934207081
1701815857696653800,2.09165380859375,-0.30394904454946514,-0.15862988851070403,0.022388795810192822
1701815857706606800,2.10160693359375,0.8916969105452298,-0.06767419082224368,-0.04038374057561159
1701815857716560000,2.111559814453125,2.497459790056944,0.1556695774003863,-0.049636137567460534
1701815857726511600,2.12151171875,1.2416904979109764,0.24409283400177953,-0.5568957777447998
1701815857736464600,2.131464599609375,0.49809097594618795,0.5867084399454295,-0.31238091893866654
1701815857746417700,2.141417724609375,0.3268763311505318,1.2945857834048569,0.3332549262717366
1701815857756370700,2.15137060546875,-0.31749826195240016,1.4865113539263606,0.27923355935737487
1701815857766323700,2.16132373046875,-1.3896668904602527,0.4775092295579612,-0.12538272181674837
1701815857776276700,2.17127685546875,-1.824773879227042,-0.2360961361594498,-0.11101678120344877
1701815857786229800,2.181229736328125,-2.021519271120429,-0.6933433528028428,-0.17342267623394728
1701815857796182800,2.191182861328125,-1.992111974850297,-0.7624746105656027,-0.21199907512664792
1701815857806134800,2.201134765625,-1.5873498554646968,-0.6050466451905667,-0.09435732282549142
1701815857816087800,2.211087890625,-1.0015671520620584,-0.3660866440325975,0.029084932447969912
1701815857826040800,2.221040771484375,-0.41833354862034317,-0.11354995294287801,0.05485796386897564
1701815857835993900,2.230993896484375,0.047666591060161585,0.020889643293619156,0.08776099330037831
1701815857845947000,2.24094677734375,0.3655558981567621,0.14341083819940686,0.09215046043097973
1701815857855900000,2.25089990234375,0.41259588175117967,0.20586744050383565,0.09239011440575122
1701815857865853000,2.26085302734375,0.3762590784788131,0.21390081709474323,0.05712795462757349
1701815857875806000,2.270805908203125,0.297233472558856,0.23470862732380626,-0.033334698846936225
1701815857885757700,2.2807578125,0.28813772743344307,0.18633213442862032,-0.11431026979088782
1701815857895710700,2.290710693359375,0.20266484507024288,0.12474047839045524,-0.2728197467923164
1701815857905663700,2.300663818359375,0.11936170796155929,0.11534765001460909,-0.43036973111182447
1701815857915616800,2.31061669921875,-0.10829846215546131,0.13602131246998905,-0.40075551409274335
1701815857925569800,2.32056982421875,-0.35239129615724085,-0.11917013091221451,-0.439760952052474
1701815857935522800,2.330522705078125,-0.5208709630310535,-0.2427133623421192,-0.2711705182805657
1701815857945475800,2.340475830078125,-0.5788379988312721,-0.18856062413305044,-0.19357348385900258
1701815857955428900,2.350428955078125,-0.7890045978337525,-0.07945581403076649,-0.3076329937592149
1701815857965380900,2.360380859375,-0.969226724949479,-0.045152270151674744,-0.34753596508055923
1701815857975333600,2.370333740234375,-0.975581062412262,-0.055228843007981775,-0.3110632604688406
1701815857985286700,2.38028662109375,-0.710309831303358,0.17340017214119433,-0.04473462926149368
1701815857995239700,2.39023974609375,-0.22285364661812782,0.46896015852987766,0.2967795913115144
1701815858005192700,2.400192626953125,0.2684504456669092,0.2947489622667432,0.3774523799166083
1701815858015145700,2.410145751953125,0.6777484549164772,0.28086569060385225,0.4370061003863811
1701815858025098800,2.4200986328125,1.0095330163747072,0.157548230753839,0.3070946490988135
1701815858035051800,2.4300517578125,1.1911492281973362,-0.03677870182096958,0.14773703083544967
1701815858045003800,2.440003662109375,1.3472826237171887,-0.18790946674793957,0.10823884092271327
1701815858054956800,2.449956787109375,1.3918681998968123,-0.27504034545123573,0.13189765666872263
1701815858064909800,2.459909912109375,1.158338260963559,-0.2730626156374812,0.03822363993227482
1701815858074862600,2.469862548828125,0.6786123782694339,-0.09137479988336562,0.06855857244133949
1701815858084816600,2.479816650390625,0.21493629762232302,0.09300152430236339,0.33070290370136496
1701815858094769700,2.489769775390625,-0.09835282220244407,0.17652999459952115,0.32570319571793077
1701815858104722700,2.49972265625,-0.230841138240695,0.38613282223939893,0.037482466176152224
1701815858114675700,2.50967578125,-0.1494564019739628,0.4672805348798632,-0.2386141103297472
1701815858124627700,2.519627685546875,-0.07498246800899505,0.383572031840682,-0.3700385965287685
1701815858134580700,2.529580810546875,-0.05288987866640091,0.3734957512453198,-0.4671683066770434
1701815858144533800,2.53953369140625,0.05379413402974605,0.44587885041087866,-0.4942649879172444
1701815858154486800,2.54948681640625,0.26326398293972014,0.4439695096582174,-0.45658144621104
1701815858164439600,2.559439453125,0.30698622028827666,0.3604492226675153,-0.33943215360194445
1701815858174392600,2.569392578125,0.1579559347718954,0.24751287157833574,-0.16299392893910408
1701815858184345600,2.579345703125,-0.004490297156572342,0.21038374888449907,0.005524900901317596
1701815858194298600,2.589298583984375,-0.03146305975615978,0.27967005107849835,0.10767360825538634
1701815858204250600,2.599250732421875,0.11688391967117785,0.31231004565954207,0.088916008554399
1701815858214203600,2.60920361328125,0.3240226952850818,0.24238895269334315,-0.017099018839001653
1701815858224156700,2.61915673828125,0.5122153628885746,0.12294424262344837,-0.10483107830584049
1701815858234109700,2.629109619140625,0.5804559554219245,0.09349223042875528,-0.0988330069348216
1701815858244062700,2.639062744140625,0.6492810698449611,0.05351064091324806,-0.025894027452170846
1701815858254015700,2.649015625,0.6250427006453275,0.07428484113365412,-0.017737316742539404
1701815858263968800,2.65896875,0.4758849893569946,0.0809255943223834,-0.08595394387841224
1701815858273921800,2.668921875,0.280575183224678,0.030989304764568803,-0.03599251987934112
1701815858283873500,2.67887353515625,0.1037327616751194,0.0007698153287172317,0.05343874472081661
1701815858293826600,2.68882666015625,-0.11842705745995044,0.028259879800677297,0.04519084859639406
1701815858303779600,2.698779541015625,-0.37307109609246253,0.002101356193423271,0.11189064142853021
1701815858313732600,2.708732666015625,-0.41762160095870493,-0.06866232507675886,0.24399784919470546
1701815858323685600,2.718685546875,-0.276662393695116,-0.1380401049464941,0.2698155965402722
1701815858333638700,2.728638671875,-0.2857464483827352,-0.1927729811310768,0.2215270741894841
1701815858343591700,2.738591796875,-0.28898762226104735,-0.20919541588276624,0.32297230944931504
1701815858353544700,2.748544677734375,-0.09554770165383815,-0.2000692756190896,0.4881918054834008
1701815858363497700,2.758497802734375,0.23705928210318086,-0.2579094701692462,0.6100929687947034
1701815858373449500,2.768449462890625,0.4616811074376106,-0.28453707259297367,0.6358300521194934
1701815858383402500,2.778402587890625,0.5333119269311428,-0.1693777847573161,0.546349687680602
1701815858393355500,2.78835546875,0.6260942555248737,-0.16462532953321932,0.20435528237521647
1701815858403308500,2.79830859375,0.5630512316346168,-0.24437077416032552,0.0045192309901118275
1701815858413261600,2.808261474609375,0.3783160110086202,-0.16308073043972252,0.16094211097583175
1701815858423214600,2.818214599609375,-0.008680734583735465,0.3393888989821076,0.5944046935364604
1701815858433167600,2.828167724609375,-0.12696399965882302,0.21606500939130782,0.6016996728502214
1701815858443120600,2.83812060546875,-0.16405015999376774,0.16669336797893047,0.5099564780458807
1701815858453073000,2.848072998046875,0.08280687802433967,0.09131196378022431,0.22976561796367168
1701815858463025700,2.858025634765625,0.5521989982306957,0.03566109596788883,-0.08571633573025464
1701815858472978700,2.867978759765625,0.6195937875896692,-0.10475976663529872,-0.2320177808046341
1701815858482931700,2.877931640625,0.2445645431667566,-0.24197540345638988,-0.33945582673847674
1701815858492884700,2.887884765625,-0.3300169672638178,-0.2842565020859241,-0.40100583559200165
1701815858502837800,2.897837646484375,-0.6861591403871774,-0.19149054010510444,-0.18625278558209538
1701815858512790800,2.907790771484375,-0.87024904884696,0.002108078195154667,0.05995338731184601
1701815858522743800,2.917743896484375,-0.9439537520051002,0.08466974928677082,0.19293518595546483
1701815858532695800,2.92769580078125,-0.8504080378234385,0.06234481249302625,0.29495398331955075
1701815858542648600,2.937648681640625,-0.6167670397311449,-0.02433276948481798,0.34844007431343194
1701815858552601600,2.9476015625,-0.3960340385288,-0.12154080556631087,0.37935572931990025
1701815858562554600,2.9575546875,-0.31394144625365733,-0.1703276328280568,0.3872216403894126
1701815858572507600,2.967507568359375,-0.3342775473177433,-0.2066083219990134,0.417785559348762
1701815858582460700,2.977460693359375,-0.4312859691739082,-0.20179390745460987,0.45251463516354556
1701815858592413700,2.98741357421875,-0.522803976920247,-0.1663055377051234,0.4575603742457926
1701815858602366700,2.99736669921875,-0.5734697497963905,-0.09681903676390648,0.40573417928814887
1701815858612318700,3.007318603515625,-0.5172773224532604,-0.047725627771019935,0.3592342939198017
1701815858622271700,3.017271728515625,-0.44798225243091583,-0.010015490318834782,0.2587577575616538
1701815858632224500,3.027224609375,-0.40012276914715766,0.07780775456279516,0.08884732723236083
1701815858642177500,3.037177490234375,-0.3319266002774238,0.1817223025456071,-0.08335545181781052
1701815858652130600,3.047130615234375,-0.3410445572346449,0.22842881640195845,-0.23748159916847944
1701815858662083600,3.05708349609375,-0.3693482761770487,0.2120245018288493,-0.2572352241694927
1701815858672036600,3.06703662109375,-0.3678255966544151,0.2056070360019803,-0.2585258485019207
1701815858681989600,3.07698974609375,-0.2762292629748583,0.2065940012127161,-0.24144261175394058
1701815858691941600,3.086941650390625,-0.13188275136053562,0.2014040313541889,-0.19541034389734266
1701815858701894700,3.096894775390625,0.008655600142478943,0.14810937127918003,-0.15003653994947672
1701815858711847700,3.10684765625,0.11084113237559795,0.07618541405797004,-0.08512012340277433
1701815858721800400,3.116800537109375,0.2341781737089157,0.057528936643898486,-0.026373335401713847
1701815858731753500,3.12675341796875,0.32772388789057727,0.029884266132116317,-0.0035921792730689048
1701815858741706500,3.13670654296875,0.2913771477460861,0.013954583333432673,-0.011082827289402485
1701815858751659500,3.146659423828125,0.1783639320284128,0.016029636041820047,-0.019243337391316888
1701815858761612500,3.156612548828125,-0.0006768763482570648,0.02115560075342655,-0.016100655451416968
1701815858771564800,3.166564697265625,-0.12410334953069686,0.04882365214079618,-0.02486614570915699
1701815858781517800,3.176517822265625,-0.12243395501375198,0.10022241546660661,-0.025715456014871595
1701815858791470800,3.186470947265625,-0.07227437809407711,0.1259451780050993,-0.031131635844707486
1701815858801423600,3.196423583984375,-0.011278349861502647,0.12351122885644435,-0.045614042444527145
1701815858811376600,3.206376708984375,0.04315291302800178,0.09139847301989794,-0.10744213758707045
1701815858821329700,3.21632958984375,0.08666063084304332,0.052180561353266236,-0.16920301271229982
1701815858831282700,3.22628271484375,0.13709902470409868,0.056768181404471395,-0.17242577415108679
1701815858841235700,3.236235595703125,0.13827683631181717,0.06535276213735342,-0.14850392355471848
1701815858851187700,3.246187744140625,0.07382628371119498,0.07000117246508598,-0.10443214211612939
1701815858861140700,3.256140625,-0.0024707740277051925,0.05767857424765825,-0.046886254337429996
1701815858871093800,3.26609375,-0.02949555907547474,0.08184212464541196,-0.0274646377697587
1701815858881046800,3.276046875,-0.06007189912497997,0.08457651804536581,-0.008571136729419232
1701815858890999600,3.28599951171875,-0.06655249331593513,0.06190349846631288,-0.007224690556526183
1701815858900952600,3.29595263671875,-0.056121115672588345,0.038385844756662846,-0.06484539713710546
1701815858910905600,3.305905517578125,0.0008995791882276535,0.028115210632979868,-0.15867723478376863
1701815858920858600,3.315858642578125,0.09275193345546721,0.004993278242647648,-0.23153759607225655
1701815858930810600,3.325810546875,0.13615619089603423,-0.022483342225849627,-0.27576982876956463
1701815858940763600,3.335763671875,0.11664718830585478,-0.008061141380667686,-0.30491029079705473
1701815858950716700,3.345716552734375,0.07939034757912158,0.023094167600572108,-0.29463731858581305
1701815858960669700,3.355669677734375,0.06742810710668563,0.07459200738668441,-0.24432313562631605
1701815858970622700,3.365622802734375,0.10655717144608497,0.13561287779957054,-0.20705665028840303
1701815858980575500,3.375575439453125,0.17317571573555468,0.1409793732687831,-0.2237210771024227
1701815858990528500,3.385528564453125,0.1613981841802597,0.0964478653639555,-0.17142682624161243
1701815859000481500,3.3954814453125,0.1086035825818777,0.07270575524866581,-0.059285717183351516
1701815859010433800,3.405433837890625,0.060033905202150344,0.05438274757266044,0.016639292372763157
1701815859020386800,3.41538671875,0.06595569646656513,0.04341828596591949,0.09719576112180947
1701815859030339800,3.42533984375,0.09226151959002017,0.007439502350986003,0.1402948981359601
1701815859040292900,3.43529296875,0.1839110447615385,-0.01918663876801729,0.12509031474143267
1701815859050246000,3.445245849609375,0.2545955233156681,-0.022587094861268996,0.0846574743270874
1701815859060198700,3.45519873046875,0.31636136687695976,-0.01900719054788351,0.05637479817271232
1701815859070151700,3.465151611328125,0.29311668488979337,-0.0322314137801528,0.08379822714924812
1701815859080104700,3.475104736328125,0.16549217549562453,-0.06450432861447333,0.15056933165192604
1701815859090057700,3.4850576171875,0.027729718446731565,-0.05662585032433271,0.20627777487039564
1701815859100009700,3.495009765625,-0.08444704644680023,-0.009967267262935639,0.21587036360204218
1701815859109962800,3.504962646484375,-0.10525953285098075,0.008465046006441115,0.17789660677760838
1701815859119915800,3.514915771484375,-0.07766542348265647,0.020312720188498497,0.13430939398556946
1701815859129868800,3.524868896484375,-0.06209960556030273,0.007146364623308182,0.06747954503297805
1701815859139821800,3.53482177734375,0.0154021517932415,-0.017396540480852127,0.0517442157626152
1701815859149774800,3.54477490234375,0.049234863290190695,0.003565583527088165,0.05740180313289165
1701815859159727900,3.554727783203125,0.03676876494884491,-0.02158990051746368,0.04633446567356586
1701815859169680000,3.564679931640625,-0.015922960796952247,-0.06407119789421559,0.057706631298363203
1701815859179633000,3.5746328125,-0.07207213352024555,-0.0695887922719121,0.046207916684448715
1701815859189585700,3.584585693359375,-0.16528350118100643,-0.07756079406440257,0.057064241741597646
1701815859199538700,3.59453857421875,-0.2736035906463861,-0.056929509446024894,0.048456280133128166
1701815859209491700,3.60449169921875,-0.2699538359671831,-0.01669891360551119,0.023066402810811994
1701815859219444700,3.61444482421875,-0.21782792741060256,0.009836042098701,0.02116992153972387
1701815859229397800,3.624397705078125,-0.15154782129526137,0.027267069371044634,-0.0042281390890479085
1701815859239350800,3.634350830078125,-0.08773322851061821,0.032845746286213395,0.015576047055423259
1701815859249303800,3.6443037109375,-0.06576280424296856,0.04087327765822411,-0.0032680618852376935
1701815859259255800,3.654255859375,-0.10356325032711028,0.02560907303094864,-0.01407850197404623
1701815859269208800,3.664208740234375,-0.17389993835687637,0.01682955424785614,0.02012742674946785
1701815859279161600,3.67416162109375,-0.2036129395753145,0.019968144534528255,0.035710488067567346
1701815859289114600,3.684114501953125,-0.14941723900735376,0.05551438195109367,0.016180150428414343
1701815859299067600,3.694067626953125,-0.05009001881480217,0.05375117167085409,-0.051989714956283566
1701815859309020700,3.704020751953125,0.047750177690386766,0.07269260350614785,-0.10947422793656587
1701815859318973700,3.7139736328125,0.09302782778739929,0.09519143556207418,-0.13997954857647418
1701815859328926700,3.7239267578125,0.0730722504734993,0.10785276421457528,-0.10855272917747497
1701815859338879000,3.73387890625,0.041056233009696005,0.11223521708250045,-0.13353782509118317
1701815859348832000,3.74383203125,0.0032049335211515426,0.12977876481860876,-0.11724778454750776
1701815859358784800,3.75378466796875,-0.10051087701916694,0.08978869973570108,-0.11661591638475656
1701815859368737800,3.76373779296875,-0.15114567023515701,0.0421086646720767,-0.07005173360854387
1701815859378690800,3.77369091796875,-0.09576865092813969,0.09061550594866276,0.059334817022085186
1701815859388643800,3.783643798828125,-0.0646282472550869,0.09392828375846148,0.1200847615391016
1701815859398596900,3.793596923828125,-0.03598433657288551,-0.04152940347939729,0.1512394859984517
1701815859408550000,3.8035498046875,-0.025381694015860556,-0.10349223091751336,0.1495882116600871
1701815859418502000,3.813501953125,0.05762450597286224,-0.0595955137848854,0.20462854635864494
1701815859428455000,3.823454833984375,0.1384147834777832,0.1608183384656906,0.3128238404005766
1701815859438408000,3.833407958984375,0.19526830507814882,0.061977440485358234,0.26488047822564836
1701815859448360700,3.843360595703125,0.1737543924063444,0.010313888743519782,0.26054770971834657
1701815859458313700,3.853313720703125,-0.00878244139254093,-0.12069617143571376,0.10347177265137433
1701815859468266800,3.863266845703125,-0.054823477077484126,-0.2236839599624276,-0.017365560820698737
1701815859478219800,3.8732197265625,-0.08328560145199299,-0.15553279927819966,-0.13404139069914817
1701815859488172800,3.8831728515625,-0.024570377632975576,-0.050776832035183905,-0.21403058095425367
1701815859498124800,3.893124755859375,0.02902326538860798,0.0939008112296462,-0.1893760321691632
1701815859508077800,3.903077880859375,0.024836335092782973,0.13951748402267694,-0.09660510175228118
1701815859518030800,3.91303076171875,-0.012639116820693016,0.07554331676214933,-0.0406578813418746
1701815859527983900,3.92298388671875,-0.06080722766220569,0.0511015339449048,0.0038087446331977843
1701815859537936600,3.9329365234375,-0.07824643824100494,0.11153934377282858,0.02416939561665058
1701815859547889700,3.9428896484375,-0.1330646546214819,0.25435762290656566,-0.03160597535818815
1701815859557842700,3.9528427734375,-0.28200375472307204,0.4011167486205697,-0.2060419202879071
1701815859567795700,3.962795654296875,-0.38686464364528655,0.3969549527660012,-0.33404519986659287
1701815859577747700,3.972747802734375,-0.3618400925040245,0.35999008072316646,-0.29889994446635243
1701815859587700700,3.98270068359375,-0.2217687739908695,0.510994881182909,-0.10055267033427953
1701815859597653800,3.99265380859375,-0.019826397976279258,0.6394646092295646,0.06569704553037882
1701815859607606800,4.002606689453125,-0.06351590209901332,0.4039773987486958,0.0816311122432351
1701815859617559800,4.012559814453125,-0.10003858333230017,0.7417822434097529,0.41369975133985276
1701815859627512600,4.0225126953125,-0.0757470226407051,0.3735305302977562,0.31418343831598755
1701815859637465600,4.032465576171875,-0.2120230405241251,-0.011862871751189231,0.3739569390162825
1701815859647418600,4.042418701171875,-0.20780279248058794,-0.12983020274490117,0.5289160300597548
1701815859657371000,4.052370849609375,0.03618307401537895,-0.2796574838578701,0.19202596215605736
1701815859667324000,4.062323974609375,0.17483341981470585,-0.4346668437838554,-0.048589551123976706
1701815859677277000,4.07227685546875,0.20016542946994303,-0.6680839699923992,-0.20872516802251337
1701815859687230000,4.08222998046875,0.31958734318614,-0.8208350295975804,-0.37209669810235496
1701815859697183000,4.092182861328125,0.40062195084095,-0.8613309983760118,-0.49080286476463075
1701815859707135700,4.1021357421875,0.4721235909968614,-0.6991226668566465,-0.42257951562702656
1701815859717088800,4.1120888671875,0.5230301868915558,-0.135792910541594,-0.023521745362877846
1701815859727041800,4.122041748046875,0.4955962365210056,0.19282529584020375,0.21703882285952567
1701815859736993800,4.131993896484375,0.37934009335935115,0.1072445691883564,0.15564765782952308
1701815859746946800,4.14194677734375,0.27809797945618625,0.03788841662853956,0.0514957939594984
1701815859756899800,4.15189990234375,0.30958325104415413,0.10498334625810384,-0.02181523370593786
1701815859766852900,4.161852783203125,0.33576924718022344,0.10097761774808167,-0.07221388007849454
1701815859776806000,4.171805908203125,0.3086860099434852,0.05711246479749679,-0.10458441006839275
1701815859786759000,4.181759033203125,0.3362286813855171,0.02164016939997673,-0.14655834244489668
1701815859796711700,4.191711669921875,0.42260465006828307,-0.002041150438785553,-0.1504024506524205
1701815859806664700,4.201664794921875,0.43762160193622107,0.0031400515913963317,-0.1339078274473548
1701815859816617700,4.21161767578125,0.49540159073173995,0.017321721678972245,-0.1016717374920845
1701815859826569700,4.22156982421875,0.5056237095385789,0.005475508801639079,-0.07465279766321181
1701815859836522800,4.231522705078125,0.46614334754347797,-0.006181903505325317,-0.07674363246262073
1701815859846475800,4.241475830078125,0.35846798572242256,-0.04433423176705837,-0.05234685783088207
1701815859856428800,4.2514287109375,0.15099486358761788,-0.05774959365725517,-0.012481295910477638
1701815859866381800,4.2613818359375,-0.04269406334459781,-0.0455287022486329,0.054287762765586375
1701815859876334800,4.2713349609375,-0.14137947850227356,-0.011313421174883842,0.07793196546435356
1701815859886287600,4.28128759765625,-0.16024550701379775,-0.00561667083799839,0.09927636678814887
1701815859896240600,4.29124072265625,-0.12490531356334686,-0.015768354757130145,0.07371960846632719
1701815859906193000,4.30119287109375,-0.07093874557614326,-0.020732406905293464,0.0763242380067706
1701815859916146000,4.31114599609375,-0.07277239074409007,-0.013731588232517241,0.06996493210792541
1701815859926099000,4.321098876953125,-0.08603051624596118,-0.019962883837521074,0.10741145018786191
1701815859936052000,4.331052001953125,-0.14233867892324922,-0.043054421089589595,0.14185644836425781
1701815859946005000,4.3410048828125,-0.18646189828813076,-0.06603723727017641,0.15544424421191214
1701815859955958000,4.3509580078125,-0.15501578966677187,-0.08075228358209133,0.2150704453960061
1701815859965910800,4.360910888671875,-0.10347148039042948,-0.1127647939145565,0.23971476504802702
1701815859975863800,4.37086376953125,-0.06844400615096091,-0.12155980252772569,0.24545652357041833
1701815859985815800,4.38081591796875,-0.024478023174405096,-0.097881113037467,0.221851776099205
1701815859995768800,4.390768798828125,0.011564765587449073,-0.03877835120558738,0.14421908584237098
1701815860005721900,4.400721923828125,-0.020292261922359466,0.08565086927860975,0.020231471645832062
1701815860015675000,4.4106748046875,-0.07229717444777488,0.19114041149318217,-0.114327659317106
1701815860025628000,4.4206279296875,-0.1487847863227129,0.27325404655635355,-0.3088726185567677
1701815860035581000,4.430580810546875,-0.12038929744362831,0.2994552402615547,-0.5185843133985996
1701815860045534000,4.440533935546875,-0.17546821058690548,0.29330840806961056,-0.4799672902345657
1701815860055486700,4.45048681640625,-0.2901443910807371,0.1668777846351266,-0.4662945925824344
1701815860065438700,4.460438720703125,-0.32519290810823437,0.06825315975397825,-0.2609204885534942
1701815860075391700,4.470391845703125,-0.29246435846090313,0.041890930268168446,-0.01549085299000144
1701815860085344500,4.480344482421875,-0.24237901582121849,-0.002642623463273048,0.1340320383489132
1701815860095297500,4.490297607421875,-0.21692308752536774,-0.09069938483983278,0.22653598839268088
1701815860105250600,4.50025048828125,-0.2509615507274866,-0.1600993765413761,0.32686756332218647
1701815860115203600,4.51020361328125,-0.2717582550406456,-0.2237467960655689,0.3522052720658481
1701815860125156600,4.520156494140625,-0.20095745663046835,-0.20360709435641763,0.37621129381433127
1701815860135109400,4.530109375,-0.1296434480011463,-0.19773235710412262,0.3373471640214324
1701815860145061400,4.540061279296875,-0.10728899285197258,-0.18830138867497442,0.271574715167284
1701815860155014400,4.550014404296875,-0.11261807892024517,-0.14242781851142644,0.1722172459669411
1701815860164967400,4.559967529296875,-0.13447861307263373,-0.08390110300183296,0.09555281622037291
1701815860174920400,4.56992041015625,-0.17673370047807693,-0.028433775062859056,0.03467500753998756
1701815860184873500,4.57987353515625,-0.20520225459337232,0.02090688668936491,0.013317454473674297
1701815860194826500,4.589826416015625,-0.16632921084165572,0.0463394341096282,0.03703282271251082
1701815860204779500,4.599779541015625,-0.09430500811636447,0.0565980855345726,0.06772460583522916
1701815860214732500,4.609732666015625,-0.009717676416039467,0.04203326134830713,0.07930150025188923
1701815860224684500,4.6196845703125,0.06445289068818091,-0.0010188216537237167,0.03774930041879415
1701815860234637600,4.629637451171875,0.1316916127026081,-0.01691372539997101,0.03313625366538763
1701815860244590600,4.639590576171875,0.15912673211693762,-0.025343700093030927,0.07095058214440941
1701815860254543600,4.649543701171875,0.12043138301968574,-0.03161941936165094,0.07533361953422427
1701815860264496600,4.65949658203125,0.10894318979978561,-0.034871991416811944,0.0717350105203688
1701815860274449700,4.66944970703125,0.09942249726057052,-0.03251607594043016,0.06378770477771759
1701815860284402700,4.679402587890625,0.07968786922097205,-0.014301497074961662,0.0605892009973526
1701815860294355700,4.689355712890625,0.07875146515369415,-0.006552490383386612,0.0640329117104411
1701815860304308700,4.699308837890625,0.10710077680349349,0.00024199206233024596,0.063384092412889
1701815860314260500,4.709260498046875,0.12231354350447654,-0.007392740599811077,0.06006473873183131
1701815860324213500,4.719213623046875,0.10690203936100005,-0.022680033841729164,0.04379091867059469
1701815860334166500,4.72916650390625,0.06702303343713283,-0.02283259405493736,0.022103841388970612
1701815860344119600,4.73911962890625,0.05327858572304248,-0.015922084014117717,0.013070493975281714
1701815860354072600,4.749072509765625,0.02418985388278961,-0.011267536206543445,-0.009162088359892368
1701815860364025600,4.759025634765625,-0.004081131833791733,0.011835399222373961,0.0028428222104907035
1701815860373978600,4.768978515625,-0.021991467055678365,0.018823358413577077,0.03721607032492757
1701815860383930400,4.778930419921875,-0.013489011648297309,-0.004679389987885952,0.04883168931677937
1701815860393883400,4.78888330078125,0.005503858113288879,0.010414134247601032,0.06861103328093886
1701815860403836400,4.79883642578125,0.034898294901847836,0.0026417466804385184,0.059670186456292865
1701815860413789400,4.80878955078125,0.06238543676435947,-0.0038873628273606298,0.04806552724987268
1701815860423742500,4.818742431640625,0.026494039171934127,-0.018713176037371156,0.04782558101415634
1701815860433695500,4.828695556640625,-0.022158055794239042,-0.025326456697285175,0.028665245731174942
1701815860443648500,4.8386484375,-0.042861821126937864,-0.005766016180813312,0.03667144205421209
1701815860453601500,4.8486015625,-0.04717676171660423,0.007445639830827713,0.04002235991731286
1701815860463554600,4.858554443359375,-0.078884151622653,0.0071615621924400324,0.045978637973219154
1701815860473506600,4.868506591796875,-0.09182079008519649,0.004842763856053352,0.030319004287570714
1701815860483459600,4.87845947265625,-0.06054243924617767,0.014799217464029788,-0.0022631226263940332
1701815860493412600,4.88841259765625,-0.05947159514427185,0.011078735636174678,-0.016856734515726564
1701815860503365600,4.89836572265625,-0.10188801059126854,-0.014048983618617056,0.017888123390078545
1701815860513318700,4.908318603515625,-0.14370470657944678,0.0019081717088818549,0.06781111507490277
1701815860523271700,4.918271728515625,-0.10132570053339005,-0.015650281335413456,0.07307590373530984
1701815860533224700,4.928224609375,-0.08055705327093601,-0.013964227944612502,0.03900558409020304
1701815860543176700,4.9381767578125,-0.06356207932829856,-0.01813362258374691,0.039166181479394435
1701815860553129500,4.94812939453125,-0.09063304160535335,-0.020021628287434576,0.021012977412343023
1701815860563082500,4.95808251953125,-0.11578268043100833,0.007194879940152167,-0.004920066875964403
1701815860573035500,4.968035400390625,-0.05756020856499672,0.02427314825206995,-0.01573240666091442
1701815860582988500,4.977988525390625,-0.03392974213063717,0.03805091371387243,-0.041016923912614585
1701815860592941600,4.987941650390625,-0.047070963254570955,0.024065935242176054,-0.04534443172290921
1701815860602894600,4.99789453125,-0.030187632992863655,0.03833119195997715,-0.037009880228340626
1701815860612847600,5.00784765625,-0.03262450475096702,0.04921674311161041,-0.030540538083761927
1701815860622800600,5.017800537109375,-0.012202478969097137,0.05122165319323539,-0.03476940782517195
1701815860632752600,5.027752685546875,-0.01728255871236324,0.030775369752943513,-0.045494069326668975
1701815860642705400,5.037705322265625,-0.037545594540238376,0.02927139493077993,-0.008023585849255324
1701815860652658400,5.047658447265625,-0.020466449445486066,0.0434223776191473,0.0388702672727406
1701815860662611500,5.057611572265625,-0.019931027394533157,0.02030161427259445,0.016404752964526415
1701815860672564500,5.067564453125,0.019614801052212714,0.011511574095487594,0.019857962158322334
1701815860682517500,5.077517578125,0.05095511121153831,0.0012500000610947608,0.02043649269863963
1701815860692470500,5.087470458984375,0.03849193547964096,0.0017436287969350814,-0.00662161009684205
1701815860702423600,5.097423583984375,0.04426175105273723,-0.028126316548883912,-0.027638533031940457
1701815860712375600,5.10737548828125,0.08870353484749793,-0.020801672749221324,-0.0388331501327455
1701815860722328600,5.11732861328125,0.09748130006492137,-0.024579729983210563,-0.02274550029337406
1701815860732281300,5.12728125,0.10325053111612796,-0.017854805642366408,-0.010236731854081154
1701815860742234400,5.137234375,0.12466273697912693,0.018061434130370615,0.0069081719532608984
1701815860752187400,5.1471875,0.13322890527248382,0.02364741756916046,-0.014955284808576106
1701815860762140400,5.157140380859375,0.11041793852746486,0.014564531925320624,-0.032380320731550456
1701815860772093400,5.167093505859375,0.03299626067280769,0.015295184287428855,-0.043628859976679084
1701815860782046500,5.17704638671875,-0.05772445921599865,0.036111762344837185,-0.03138838708475232
1701815860791999500,5.18699951171875,-0.09599076924622059,0.054531800654530525,-0.009725275200605392
1701815860801951700,5.19695166015625,-0.08923077359199523,0.09143529789894819,-0.041638124550879
1701815860811904500,5.206904541015625,-0.03556114272475242,0.06089578272849321,-0.05747881389185786
1701815860821857500,5.216857421875,0.035684476843476295,0.03180149793028831,-0.034834143624454736
1701815860831810600,5.226810546875,0.06743570589125156,0.028227731096744535,-0.021296616659313438
1701815860841763600,5.236763671875,0.01492459740936756,0.020724808120727536,0.01223930384814739
1701815860851716600,5.246716552734375,-0.018359832555055616,-0.0037380174845457075,0.029426877753436564
1701815860861669600,5.256669677734375,-0.06788111157119274,-0.0029699557214975356,0.06906126126646996
1701815860871622700,5.26662255859375,-0.12277239318788051,0.009637012395262717,0.0699351214915514
1701815860881574700,5.27657470703125,-0.11006488730609416,0.0052402387410402295,0.06944061597287654
1701815860891527700,5.286527587890625,-0.0646890375316143,0.0019058336213231086,0.03899009426012635
1701815860901480400,5.29648046875,-0.03766542152762413,0.011746844156086443,0.00849295692667365
1701815860911433500,5.30643359375,-0.021969255223870277,0.0016828385204076767,-0.03240092512816191
1701815860921386500,5.316386474609375,-0.007202478724718094,0.02782441099286079,-0.03126549135744572
1701815860931339500,5.326339599609375,-0.04358955087959766,0.0246346750408411,-0.02103402020037174
1701815860941292500,5.33629248046875,-0.03778291042745113,0.008877718460559845,-0.016820494158565995
1701815860951245600,5.34624560546875,-0.02189151381254196,0.015315934814512728,0.0036314883701503275
1701815860961197600,5.356197509765625,-0.022477789267897605,0.03064180650115013,0.0022252748340368268
1701815860971150600,5.366150634765625,-0.011036942321062088,0.009033201283216476,-0.009630582654476165
1701815860981103600,5.376103515625,-0.0017348609685897826,0.010695289276540279,0.006321019715070724
1701815860991056400,5.386056396484375,0.024546996757388112,-0.0022813889354467392,0.00606762947589159
1701815861001009400,5.396009521484375,0.037195465928316115,0.0011208207234740257,0.006620294922590256
1701815861010962400,5.40596240234375,0.013928572109341621,-0.00263034850358963,-0.019122779751569032
1701815861020915500,5.41591552734375,0.034005145454406735,0.004983341370522976,-0.03686111940741539
1701815861030868500,5.425868408203125,0.0506289479970932,-0.001004208606481552,-0.040607758589833974
1701815861040821500,5.435821533203125,0.033522914895415305,0.02829115172177553,-0.042099166191369296
1701815861050773500,5.4457734375,0.07436930454671382,-0.012735270671546459,0.009905015681684016
1701815861060726500,5.4557265625,0.21258944223523138,-0.07270809333622455,0.07806479806378483
1701815861070679600,5.465679443359375,0.2943453499019146,-0.11777210068255663,0.1412109900675714
1701815861080632600,5.475632568359375,0.2349754615664482,-0.11397007805109023,0.1897431119158864
1701815861090585300,5.48558544921875,0.18471125522851942,-0.10043079752027988,0.17943302256464957
1701815861100538400,5.495538330078125,0.16562252387702464,-0.07166793663352727,0.1396548466667533
1701815861110491400,5.505491455078125,0.16286474960148334,-0.03668547057956457,0.15386647350117563
1701815861120444200,5.515444091796875,0.1869832918137312,-0.036494331921637056,0.11941752980202436
1701815861130396200,5.525396240234375,0.2070423295021057,-0.02942658549249172,0.06437324958071113
1701815861140349200,5.53534912109375,0.21356325570344922,-0.038840018264949316,0.0754438019104302
1701815861150302200,5.54530224609375,0.19057108717262744,-0.024963760864734647,0.07525967751517891
1701815861160255200,5.555255126953125,0.12082593529522419,-0.004829027591645717,0.0482465829052031
1701815861170208300,5.565208251953125,0.009960253000259399,-0.004786942015588283,0.019242752869427202
1701815861180161300,5.575161376953125,-0.0047439796566963194,0.035566695682704444,0.007886807727068661
1701815861190114300,5.5851142578125,-0.019354688811302184,0.06679477763921023,0.00883022605702281
1701815861200067300,5.5950673828125,-0.04622106842696667,0.016992635855078698,-0.015456658459454774
1701815861210020000,5.60502001953125,-0.034709494331479074,-0.01343845050483942,0.01937295512035489
1701815861219972000,5.61497216796875,0.02065758810341358,-0.028057050704956052,0.0657272945381701
1701815861229925000,5.624925048828125,0.07381225518584252,-0.0528945548415184,0.08458309391662477
1701815861239878100,5.634878173828125,0.05988017594516277,-0.07800941461473702,0.0910337313607335
1701815861249831200,5.6448310546875,-0.000050268882513046264,-0.07840805854350329,0.11966916647553444
1701815861259784200,5.6547841796875,-0.08658522751927375,-0.05405687661916017,0.07501563962623477
1701815861269737200,5.6647373046875,-0.12372165673673152,-0.016242402009665965,0.04959244455620646
1701815861279690200,5.674690185546875,-0.14146072704493998,0.02704378200918436,0.01977861331179738
1701815861289643300,5.684643310546875,-0.17952654606699942,0.03963526029586792,0.010213643239438533
1701815861299596000,5.694595947265625,-0.17198153751492498,0.03297346431910991,-0.014934826542437076
1701815861309548000,5.704548095703125,-0.14303367545008658,0.0494414917781949,-0.008700900588929653
1701815861319501000,5.7145009765625,-0.11058335822224616,0.029687866777181625,-0.03332870749756694
1701815861329454000,5.7244541015625,-0.09478899224102497,0.01381751295030117,-0.04605827908068895
1701815861339407000,5.734406982421875,-0.09142682233154774,0.02574234402179718,-0.046085605479031795
1701815861349360000,5.744360107421875,-0.06997253089249134,0.03799216926395893,-0.019449673618376254
1701815861359313200,5.754313232421875,-0.05071195010542869,0.010794365736842155,-0.0049910862855613225
1701815861369266200,5.76426611328125,-0.04354629625976086,0.01215571721792221,-0.004604863446950912
1701815861379219000,5.774218994140625,-0.05938391686081886,0.015226795226335525,-0.011527648447453975
1701815861389171200,5.784171142578125,-0.06950900503396988,0.0486833668872714,-0.030847265945374965
1701815861399124200,5.794124267578125,-0.10632979243099688,0.06813771668076515,-0.05570201347768306
1701815861409077200,5.8040771484375,-0.10748013150990009,0.08907675207406282,-0.0721238637074828
1701815861419030300,5.8140302734375,-0.07927285867929458,0.10631927103698254,-0.1121869940266013
1701815861428983300,5.8239833984375,-0.130759300288558,0.10814765550792217,-0.13129779107943176
1701815861438936300,5.833936279296875,-0.14621639713943005,0.07499123583734035,-0.09130743373557924
1701815861448889300,5.843889404296875,-0.12052724460959434,0.07014058093577623,-0.07276654552519321
1701815861458842400,5.85384228515625,-0.08367372398674487,0.050876493017375464,-0.049361850670725106
1701815861468795100,5.863795166015625,-0.054122635331749915,0.028953122761845588,-0.03378258874490857
1701815861478747100,5.8737470703125,-0.03731587743759155,0.022490941010415554,-0.023916736029833553
1701815861488700200,5.8837001953125,-0.025660510957241058,0.023962182606756685,-0.03572656241953373
1701815861498653200,5.893653076171875,-0.034496728363633156,0.01783376285433769,-0.03698021574243903
1701815861508606200,5.903606201171875,-0.05230418773293495,0.03472060024738312,-0.05108604411482811
1701815861518559200,5.913559326171875,-0.05167699574530124,0.06223258429020643,-0.05879530331790447
1701815861528512300,5.92351220703125,-0.044020343512296674,0.05378069002628326,-0.061023062369972465
1701815861538465300,5.93346533203125,-0.01886778207719326,0.04120791644006967,-0.06255129485055803
1701815861548418300,5.943418212890625,-0.0191056824862957,0.021408406470716,-0.03839987328201532
1701815861558370000,5.9533701171875,0.008259294301271439,0.018894085562229157,-0.005429039311408996
1701815861568323000,5.963322998046875,0.029648119288682936,0.012711013013124465,0.027421675410866736
1701815861578276000,5.973276123046875,0.04339373604655265,0.001978022074699402,0.023981471829116342
1701815861588229000,5.98322900390625,0.0006529109507799148,0.0037818566262722013,0.018728081345558166
1701815861598182100,5.99318212890625,-0.03201894007325172,0.000526069700717926,0.014992255818098783
1701815861608135200,6.00313525390625,-0.04354629625976086,0.024182547359168527,-0.0009847732536494732
1701815861618088200,6.013088134765625,-0.0396884517878294,0.02348755083233118,-0.018663783937692642
1701815861628041200,6.023041259765625,-0.02839431983530521,-0.017688801425695417,-0.019929858350753782
1701815861637994000,6.032993896484375,0.016090718579292295,-0.023854922839999196,0.013211656011641025
1701815861647946200,6.0429462890625,0.028207272830605506,-0.021974515920877454,0.022673457970470188
1701815861657899300,6.052899169921875,0.06198971544504165,-0.0019236615389585494,0.0417893695898354
1701815861667852300,6.062852294921875,0.041032267612218856,0.0002846621602773666,0.021450638177245854
1701815861677805300,6.072805419921875,0.0015565817922353743,0.004736380872130394,-0.004435790490359068
1701815861687758000,6.082758056640625,-0.006414543217420578,0.007923486475646495,-0.014594196411222218
1701815861697711000,6.092711181640625,-0.016277765583992004,-0.0017769465446472166,-0.041033144395053386
1701815861707664100,6.1026640625,-0.04368716603517532,0.013188859657943247,-0.02379910099953413
1701815861717617200,6.1126171875,-0.05821253499388694,0.05241466237008571,-0.012463467992842196
1701815861727570200,6.122570068359375,-0.04104804970324039,0.06087795481085777,0.002799275329709053
1701815861737522200,6.132522216796875,-0.00274842192530632,0.04047667955607175,0.008780249435454607
1701815861747475200,6.14247509765625,0.03077741557955742,0.03819909001290798,0.00042889293655753134
1701815861757428200,6.15242822265625,0.031651860326528544,0.017559037566184998,0.037864743492007254
1701815861767381200,6.16238134765625,0.04053425496220588,0.009143968181312084,0.05682677972391247
1701815861777334300,6.172334228515625,0.059141340276598925,-0.011333294919133185,0.06028787996321916
1701815861787287300,6.182287353515625,0.05456628744602203,-0.015169804342091083,0.04735182602256536
1701815861797240300,6.192240234375,0.026147417691349983,-0.009328677098453045,0.056382835348695516
1701815861807193300,6.202193359375,0.004253565791249275,-0.0004667407289147377,0.046827509887516494
1701815861817145000,6.21214501953125,0.003751461488008499,0.024115911863744257,0.04753200489506125
1701815861827098000,6.22209814453125,0.017110709276795387,0.03060995005816221,0.017125468454509973
1701815861837051100,6.232051025390625,0.01887596538364887,0.022144319529831407,-0.0209257375203073
1701815861847004200,6.242004150390625,0.026885668838024138,0.006952595616877079,-0.002731178529560566
1701815861856957200,6.251957275390625,0.035466450178623196,0.024142215348780152,0.005735767173022032
1701815861866910200,6.26191015625,-0.001402268013358116,0.009432429733872413,0.014398527708649635
1701815861876863200,6.27186328125,-0.02276595855951309,-0.0015407997012138366,0.02120426220074296
1701815861886816300,6.281816162109375,-0.022904490247368813,0.0008761983126401901,0.003274783886969089
1701815861896769300,6.291769287109375,-0.006184241592884063,-0.0023819267004728316,0.0154980133831501
1701815861906721000,6.301720947265625,0.017064532047510145,0.011673486658930778,0.018908844739943743
1701815861916674000,6.311674072265625,0.049997079834342,-0.0012365560576319693,-0.002309153725206852
1701815861926627000,6.321626953125,0.04084580512940884,-0.011246201157569885,0.013313655081391334
1701815861936580000,6.331580078125,0.037002573704719544,-0.014137830945849418,-0.018185645031929015
1701815861946533000,6.341533203125,0.046080783173441886,-0.010644435872137545,-0.022659137184172867
1701815861956486100,6.351486083984375,0.05092354702949524,0.0016249708533287047,-0.0009130231916904449
1701815861966439200,6.361439208984375,0.06827683289051055,0.005380816255509853,0.009384352808445691
1701815861976392200,6.37139208984375,0.04285071521103382,0.01064472813308239,0.01672390191629529
1701815861986345000,6.381344970703125,0.008114332872629165,0.006724632079899311,0.012266630246490239
1701815861996297200,6.391297119140625,-0.010316226831078528,0.01728168192952871,0.015151976424455642
1701815862006250200,6.401250244140625,-0.006822539496421813,0.02241261507719755,0.0029744857661426066
1701815862016203300,6.411203369140625,0.0034305589705705642,0.01841594665646553,-0.03907631123885512
1701815862026156300,6.42115625,0.021206454157829284,0.008866320283710956,-0.03392302012890577
1701815862036109300,6.431109375,0.0527028316617012,0.036106501647830004,-0.023226561808586118
1701815862046062300,6.441062255859375,0.049026188975572586,-0.0009632920742034911,-0.003852145383507013
1701815862056015400,6.451015380859375,0.030703765821456907,-0.008788286611437797,0.0371197703436017
1701815862065968400,6.460968505859375,0.07715104421973228,-0.02904313913285732,0.051159401611983776
1701815862075920100,6.470920166015625,0.10286883832216262,-0.037269407947361465,0.06082461718842387
1701815862085873400,6.480873291015625,0.09913666605651378,-0.0690919486656785,0.02684855169802904
1701815862095826400,6.490826416015625,0.10936404556035995,-0.052476621690392494,0.015361527521908282
1701815862105779500,6.500779541015625,0.10212415743470192,-0.040948973242938516,0.011663403656333685
1701815862115732500,6.510732421875,0.08511106331348418,-0.02956599396318197,-0.018333090678602455
1701815862125685500,6.520685546875,0.06867956847250462,-0.029893910743296146,-0.0041712943352758885
1701815862135638500,6.530638427734375,0.03147416567206383,-0.010202537323534489,0.019412556478381155
1701815862145591600,6.540591552734375,-0.010402151548862457,0.006329787543416023,0.02850508673340082
1701815862155543300,6.550543212890625,-0.039732290929555894,0.03082037793844938,0.03216214793622493
1701815862165496300,6.560496337890625,-0.051158524829149246,0.0196808520257473,0.05424757688567042
1701815862175449300,6.570449462890625,-0.08515490245521068,0.017026245863735676,0.05211188003122806
1701815862185402400,6.58040234375,-0.1274690265715122,0.015094693279266356,0.0628197365283966
1701815862195355400,6.59035546875,-0.187927294665575,0.001995557731389999,0.07936375183314084
1701815862205308400,6.600308349609375,-0.17946926292181015,0.020662556539475917,0.07792334376648068
1701815862215261400,6.610261474609375,-0.18999650215506553,0.04719429737329483,0.06796557498425244
1701815862225214500,6.62021435546875,-0.1949082395941019,0.04635580072253942,0.05060249838158488
1701815862235167500,6.63016748046875,-0.21331717198789119,0.07585954310446977,0.036096418645232914
1701815862245119200,6.640119140625,-0.2438508419394493,0.07796732903867959,0.02476955346688628
1701815862255072300,6.650072265625,-0.23333763123154638,0.10233458531498908,0.032643063320964574
1701815862265025300,6.660025390625,-0.24069793086647986,0.11059183378964661,0.038450872816890476
1701815862274978300,6.669978271484375,-0.2555003632009029,0.07632920644283295,0.030202099909633396
1701815862284931300,6.679931396484375,-0.26543314367234705,0.06202215640991926,0.053289983899891376
1701815862294884400,6.68988427734375,-0.21677812609672545,0.04218260669112205,0.04260024758130312
1701815862304837400,6.69983740234375,-0.1925596306413412,0.029083471143245696,0.026806466121971604
1701815862314790400,6.709790283203125,-0.1489671571522951,0.01438566822707653,0.015380086091905831
1701815862324742400,6.719742431640625,-0.11339841564297676,0.002449146717786789,0.03201177968010306
1701815862334695400,6.7296953125,-0.11071019947230815,0.01898497871607542,0.025624855121970175
1701815862344648400,6.7396484375,-0.06965045933127403,0.02286532728075981,0.03814429108574986
1701815862354601500,6.7496015625,-0.03663958561122417,0.01945084266215563,0.03989055023118853
1701815862364554500,6.759554443359375,0.0005804302364587784,0.0009705985978245734,0.03608633564263582
1701815862374507500,6.769507568359375,0.013383213186264037,0.0013517068699002265,0.06213321556895971
1701815862384460500,6.77946044921875,-0.0020984335839748383,-0.005502689069509506,0.07626417838260531
1701815862394413600,6.78941357421875,0.011713234147429466,-0.018722820648550985,0.07826207420155405
1701815862404366600,6.79936669921875,0.006392915907502174,-0.032631519013643265,0.06763575850799679
1701815862414318300,6.809318359375,0.031547815430164335,-0.05208966819941997,0.056779141189903015
1701815862424271400,6.819271240234375,0.07434709271490574,-0.0608329466253519,0.06968260803520679
1701815862434224400,6.829224365234375,0.0906482391744852,-0.0643339404836297,0.10019202032834292
1701815862444177400,6.839177490234375,0.13698738102316857,-0.06705401309728622,0.13396569511443376
1701815862454130400,6.84913037109375,0.16309446670413016,-0.0856789263293147,0.15304887350797652
1701815862464083500,6.85908349609375,0.19220014967918395,-0.09259615837186574,0.14807313092201949
1701815862474036500,6.869036376953125,0.22979309049248695,-0.08542261348068714,0.10841828914284705
1701815862483989500,6.878989501953125,0.25591420469880105,-0.049073242987692355,0.07930939129739999
1701815862493942500,6.888942626953125,0.27115269036293027,-0.030462650541961192,0.044186639989912506
1701815862503894300,6.898894287109375,0.25106325753629205,-0.01985766989737749,0.010421733032166957
1701815862513847300,6.908847412109375,0.218144153752923,-0.03497574405223131,-0.007726210337877273
1701815862523800300,6.91880029296875,0.2006289553284645,-0.023503917445242405,0.02411532734185457
1701815862533753300,6.92875341796875,0.19861001672148704,-0.012469020950794218,0.02624590962976217
1701815862543706400,6.938706298828125,0.1765033988535404,0.011161153222620486,0.010075988334417342
1701815862553659400,6.948659423828125,0.1510199980288744,0.00488251134455204,-0.013594517849385737
1701815862563612400,6.9586123046875,0.12408289126455783,0.015849311038851736,-0.04803396306782961
1701815862573565400,6.9685654296875,0.11653729819059372,0.04130436255186796,-0.05329202972650528
1701815862583518500,6.9785185546875,0.10841361296772956,0.048774844563007354,-0.07538374228626489
1701815862593470200,6.98847021484375,0.08956161298155785,0.0712421124368906,-0.1311056295081973
1701815862603423200,6.99842333984375,0.05959726735055446,0.07104279047250747,-0.12374942152649164
1701815862613376300,7.008376220703125,0.04580079718828201,0.0778822811037302,-0.12158902862221002
1701815862623329300,7.018329345703125,0.002691138780117035,0.08111205680519341,-0.12285597981810568
1701815862633282300,7.0282822265625,-0.004352934512495995,0.09618629181832075,-0.10004647437781095
1701815862643235300,7.0382353515625,0.00001695113480091095,0.08904986406713723,-0.11922463757842779
1701815862653188400,7.048188232421875,-0.042921442359685896,0.06200374397039413,-0.11922113044708967
1701815862663141400,7.058141357421875,-0.09555003974139689,0.05171323610246181,-0.09684504798799752
1701815862673093400,7.06809326171875,-0.14479191729426383,0.0806137518942356,-0.09438450309336185
1701815862683046400,7.07804638671875,-0.14195289447605608,0.07503712080568074,-0.1241933659017086
1701815862692999400,7.08799951171875,-0.1378863756895065,0.0653992316275835,-0.14695406376421452
1701815862702952400,7.097952392578125,-0.13993395586907864,0.061201487676799296,-0.1494891351997852
1701815862712905500,7.107905517578125,-0.13344634741544723,0.07149842528551817,-0.12095189976245165
1701815862722858500,7.1178583984375,-0.07916530665159224,0.06445756686329841,-0.08921148436963558
1701815862732811500,7.1278115234375,-0.0249310276389122,0.05520867700278759,-0.07308949386924504
1701815862742764500,7.1377646484375,-0.017001403683423996,0.03199468241482973,-0.05707300956994295
1701815862752717600,7.147717529296875,-0.009020926323533058,0.031767011138796805,-0.0525678071051836
1701815862762669300,7.15766943359375,-0.011290624821186064,0.022558745549619195,-0.022126491612195966
1701815862772622300,7.167622314453125,-0.018577274698019026,-0.0009299743264913558,0.010322072049975395
1701815862782575400,7.177575439453125,0.00670680416226387,-0.006726677906513214,0.015394845269620417
1701815862792528400,7.1875283203125,0.03416121279895305,-0.02636485983431339,0.06733721395283937
1701815862802481400,7.1974814453125,0.07284837858974934,-0.03734948744624853,0.10678688854873179
1701815862812434400,7.207434326171875,0.09478665415346622,-0.048426761777698994,0.12183774268627166
1701815862822387500,7.217387451171875,0.14272563241422176,-0.07278729605227709,0.11886632566004991
1701815862832340500,7.227340576171875,0.1528010362267494,-0.08136749287098646,0.10907558400779963
1701815862842292200,7.237292236328125,0.14302666118741034,-0.06779460233151913,0.09881517901718616
1701815862852245200,7.247245361328125,0.13402911573946474,-0.053282092854380604,0.09313625659793615
1701815862862198300,7.2571982421875,0.08435586103200912,-0.04926292034089565,0.08970160597413777
1701815862872151300,7.2671513671875,0.04932254157364368,-0.026473580905795095,0.052280806857347484
1701815862882104300,7.277104248046875,0.027465514552593228,-0.005226794737577438,0.039753918239474294
1701815862892057300,7.287057373046875,0.011575286981463432,0.03525193064510822,0.04112491433173418
1701815862902010400,7.29701025390625,0.014203881919384001,0.04831833296716213,0.05074029941707849
1701815862911963400,7.30696337890625,0.03305646642744541,0.051100072640180585,0.054793081939220424
1701815862921916400,7.31691650390625,0.03785013044476509,0.003288520151376724,0.0733051824465394
1701815862931868400,7.326868408203125,0.014023849177360534,-0.03203121503293514,0.07950403708666562
1701815862941821400,7.336821533203125,-0.016139818418025968,-0.035710195806622505,0.09508709840476512
1701815862951774500,7.3467744140625,-0.04144143293499946,-0.06088876846581697,0.08844429938942193
1701815862961727500,7.3567275390625,-0.035063130074739456,-0.03879413329660892,0.07120148816555738
1701815862971680500,7.366680419921875,-0.035652912661433216,-0.0049880175456404685,0.07573445542007684
1701815862981633500,7.376633544921875,-0.040265374892950054,0.03939911345243454,0.06047872636020183
1701815862991586600,7.386586669921875,-0.10492518633008002,0.0225716050311923,-0.024808862563967703
1701815863001539600,7.39653955078125,-0.1345493402212858,-0.03418810080587864,-0.07060498357713223
1701815863011491600,7.40649169921875,-0.08928864125907421,-0.03598784370422363,-0.03982026147395372
1701815863021444400,7.4164443359375,-0.058176879158616066,0.038434944595396515,0.04398907159119844
1701815863031397400,7.4263974609375,-0.023400164809823036,0.04937368723899126,0.05929185466319322
1701815863041350400,7.436350341796875,0.0026888006925582884,0.02555705058276653,0.009776420865952968
1701815863051303400,7.446303466796875,0.01092354507446289,0.0281944133490324,-0.05097089330255985
1701815863061256400,7.45625634765625,-0.019727029255032537,0.04439356073886156,-0.04019289417862892
1701815863071209500,7.46620947265625,-0.03701660223007202,0.055712827132642265,-0.035951311086118216
1701815863081162500,7.47616259765625,-0.009607786300778388,0.013067571365833282,-0.020330255845189094
1701815863091114800,7.48611474609375,0.025321488261222838,-0.014838088169693946,0.0019385668471455573
1701815863101066800,7.496066650390625,0.05885375550687313,-0.018412147264182565,0.009027648325264453
1701815863111019800,7.506019775390625,0.06759644941091537,-0.01509849267154932,-0.01676847171038389
1701815863120972800,7.515972900390625,0.02488485040962696,0.001513327172398567,-0.05178074838072061
1701815863130925800,7.52592578125,0.03269289381206036,0.049046062719821926,-0.07310089204609393
1701815863140878800,7.53587890625,0.03903261822760105,0.0505897850304842,-0.09494622862935066
1701815863150831900,7.545831787109375,0.030016368079185483,0.038346389529109,-0.07735182748883962
1701815863160784600,7.55578466796875,0.07450316005945205,0.03469897293746471,-0.03795826699435711
1701815863170737700,7.565737548828125,0.09864391410350799,0.01537029535025358,-0.019682313330471515
1701815863180690700,7.575690673828125,0.10034136567115783,-0.004117079930007457,-0.013367723356187343
1701815863190643000,7.585642822265625,0.07648878091871739,-0.0017006664380431174,-0.011959317862987517
1701815863200596000,7.595595947265625,0.05866904658973217,0.025709318535029887,-0.021386194638907906
1701815863210549000,7.605549072265625,0.04049392295181751,0.05802811833769083,-0.028737141923606394
1701815863220502000,7.615501953125,-0.0037380174845457075,0.0571340921074152,-0.06841857944875955
1701815863230455000,7.625455078125,-0.006680500677227973,0.05191957232952118,-0.11380290479063987
1701815863240408000,7.635407958984375,0.01685001251399517,0.036247955945134164,-0.07139847204238176
1701815863250360800,7.64536083984375,0.02014613144993782,0.025314181737601756,-0.015184417389333247
1701815863260313900,7.65531396484375,0.009967267262935639,0.0028007366344332692,0.03503682658970356
1701815863270265900,7.665265869140625,-0.008785948523879051,0.004053074783086776,0.09269874196350573
1701815863280219000,7.675218994140625,-0.037192543318867684,-0.01258183367550373,0.05857873795777559
1701815863290172000,7.685171875,-0.059492637932300564,-0.013864859223365783,0.03383095793128013
1701815863300125000,7.695125,-0.08603460789918899,0.012713058839738368,-0.0035740590944886206
1701815863310078000,7.705077880859375,-0.09904781872928142,0.0015530746608972549,-0.012598492549359798
1701815863320031000,7.715031005859375,-0.09880874927639961,-0.012848667918145656,0.03712941495478153
1701815863329984000,7.72498388671875,-0.10190554624795913,-0.03589373567998409,0.03124006465524435
1701815863339936800,7.734936767578125,-0.055072483402490616,-0.04292436496913433,0.04671878881603479
1701815863349889800,7.744889892578125,-0.015504443123936652,-0.04037672631293535,0.04630903897136449
1701815863359841800,7.754841796875,-0.00396188936829567,-0.041166415385901926,0.03475041086375713
1701815863369794800,7.764794921875,-0.04211187954246998,-0.03591214811950922,0.04482961406856775
1701815863379747800,7.774747802734375,-0.04871113167703151,-0.009491466444730758,0.039099838244915
1701815863389700900,7.784700927734375,-0.05539806209504604,-0.0037231121763586996,0.03329436683654785
1701815863399654000,7.79465380859375,-0.05862754553556442,0.03378068904876709,-0.005080079743266105
1701815863409607000,7.80460693359375,-0.09400631743073463,0.04760375495702028,-0.015939035148918628
1701815863419559700,7.8145595703125,-0.12756722624897956,0.06720306617915629,-0.005005845463275909
1701815863429512700,7.8245126953125,-0.18534487695693969,0.06537000553309917,-0.03525865264683962
1701815863439465700,7.8344658203125,-0.1718243011265993,0.07421031459271907,-0.044642567063868044
1701815863449417700,7.844417724609375,-0.11760463516116142,0.0871019448697567,-0.05991495499759912
1701815863459370800,7.854370849609375,-0.06986147173345089,0.06281447583138942,-0.05673106426447629
1701815863469323800,7.86432373046875,-0.04217500790655613,0.07426525965034961,-0.06990238826572895
1701815863479276800,7.87427685546875,-0.018420038309693337,0.07234335167706012,-0.05855769516974687
1701815863489229800,7.884229736328125,0.01428279237449169,0.05293868624418974,-0.0299415492773056
1701815863499182800,7.894182861328125,0.037947161078453064,0.022815058398246765,-0.03428805404901504
1701815863509135600,7.904135498046875,0.08378478314578533,0.01247545069158077,-0.05199643695801496
1701815863519088600,7.914088623046875,0.12977847255766392,0.01608048944622278,-0.06274374868273734
1701815863529041700,7.924041748046875,0.18885902255773543,0.01914016927778721,-0.05811053592413663
1701815863538994000,7.933993896484375,0.22876433196663856,0.03890314662903547,-0.058628422318398946
1701815863548947000,7.943947021484375,0.23176585187017917,0.025222704061865806,-0.05256459223479032
1701815863558900000,7.95389990234375,0.15701719261705874,0.039380993273854255,-0.02589958041012287
1701815863568853000,7.96385302734375,0.03808803085386753,0.0529971384331584,-0.015939035148918628
1701815863578806000,7.973805908203125,-0.02651099030673504,0.050719548889994616,0.024805647693574427
1701815863588759000,7.983759033203125,-0.051608606684207914,0.031712942864000795,0.037223230718076226
1701815863598711800,7.9937119140625,-0.01584580390751362,-0.002571604053676128,0.06666968995481728
1701815863608664800,8.003664794921875,0.020433716219663618,-0.039241584803164004,0.10331862791627645
1701815863618616800,8.013616943359375,0.013376783445477484,-0.07826397389769554,0.12541180178076028
1701815863628569900,8.02356982421875,-0.043915714094042775,-0.0931648981705308,0.14360767594575882
1701815863638523000,8.03352294921875,-0.0853635767698288,-0.09294774828851222,0.17066373291462658
1701815863648476000,8.043475830078124,-0.12379530649483203,-0.05530220050513744,0.16411387287974358
1701815863658429000,8.053428955078125,-0.1316436819076538,-0.04316489572674036,0.13081482986807821
1701815863668382000,8.0633818359375,-0.10803951895833015,-0.029173779775202274,0.09881459449529648
1701815863678335000,8.0733349609375,-0.07154489477574826,-0.025425825418531892,0.06439706884771586
1701815863688287700,8.083287841796874,-0.042457331979274746,0.010141162525117396,0.04006634518951177
1701815863698240800,8.09324072265625,-0.041485856598615645,0.012621873424947262,0.015934943495690822
1701815863708192800,8.10319287109375,-0.05923603282272815,-0.015782383282482625,-0.002714519655704498
1701815863718145800,8.113145751953125,-0.087463179397583,0.013395195885002611,-0.03922580271214247
1701815863728098800,8.123098876953126,-0.09293313524127006,0.02920008326023817,-0.05967208615243434
1701815863738051800,8.1330517578125,-0.11406184798777103,0.04832651627361774,-0.09778583596944808
1701815863748004900,8.1430048828125,-0.13573708870112894,0.077886372756958,-0.09318126478344202
1701815863757958000,8.1529580078125,-0.135395727917552,0.09344956033080816,-0.1197013151794672
1701815863767910700,8.16291064453125,-0.14334873274862767,0.09121931706070899,-0.126900579033792
1701815863777863700,8.17286376953125,-0.17280805146694184,0.09210428320169449,-0.10907938340008258
1701815863787816000,8.18281591796875,-0.1340221014767885,0.10652940665632486,-0.11818944931179284
1701815863797768700,8.192768798828125,-0.0697609339684248,0.0870695039048791,-0.1292512338131666
1701815863807721700,8.2027216796875,0.028978841724991797,0.07493512173593044,-0.1022206035465002
1701815863817674800,8.2126748046875,0.14118833984434603,0.05564531485438347,-0.042942192886769766
1701815863827627800,8.222627685546875,0.23613573751747607,0.023238544507324693,-0.025546529188752172
1701815863837580800,8.232580810546875,0.25115502747297286,-0.0224561619579792,-0.019422201089560984
1701815863847533800,8.242533935546875,0.22610241928100586,-0.043348435600101945,0.02081540901362896
1701815863857486800,8.25248681640625,0.1976525698661804,-0.024639643476903436,0.03974252006262541
1701815863867439900,8.26243994140625,0.1774456481397152,-0.013426760067045688,0.03934504517763853
1701815863877392000,8.272391845703124,0.15086509972810744,-0.026943828766047954,0.03491290794909
1701815863887345000,8.282344970703125,0.12434358802735805,-0.03494564117491245,0.04887012163102627
1701815863897298000,8.2922978515625,0.14160218134224414,-0.047106326828897,0.03299626067280769
1701815863907251000,8.3022509765625,0.14245207616984842,-0.04765080896914005,0.059090194611251354
1701815863917204000,8.312203857421874,0.13128478546738623,-0.038347850833833214,0.07738704493269324
1701815863927157000,8.322156982421875,0.13758125526309012,-0.0434115639641881,0.10800020986124872
1701815863937110000,8.332110107421874,0.126024088460207,-0.06247983704954385,0.11940306288525461
1701815863947062800,8.342062744140625,0.12909633551239966,-0.07201046646088362,0.1514940452814102
1701815863957015800,8.352015869140626,0.14246785826086997,-0.06280161634981632,0.16531155823171137
1701815863966967800,8.3619677734375,0.12105214526653289,-0.07095160505771636,0.17249153286367655
1701815863976920800,8.3719208984375,0.086553078815341,-0.08753449106812476,0.1764998917222023
1701815863986873900,8.381873779296875,0.018199673557281495,-0.09012275399565696,0.1823582623615861
1701815863996827000,8.391826904296876,-0.014237199667096138,-0.04876958386600017,0.17164046899229288
1701815864006780000,8.40177978515625,-0.04497252967059612,0.008935293866693972,0.1441578571744263
1701815864016733000,8.41173291015625,-0.04993044433891773,0.01187251636236906,0.10515943347737193
1701815864026686000,8.42168603515625,-0.08091653423309325,0.008600947345793246,0.05354015926867723
1701815864036638700,8.431638671875,-0.08552607385516166,-0.022042612721025943,0.03015986820310354
1701815864046590700,8.4415908203125,-0.08306114504635334,-0.020862463025748727,0.06926014483943581
1701815864056543700,8.451543701171875,-0.09544657936692237,-0.029575930835306644,0.10659808797836304
1701815864066496800,8.461496826171874,-0.11113806949555874,-0.044287762276828284,0.11208864821866155
1701815864076449800,8.47144970703125,-0.15637655662596225,-0.046426235610246655,0.12618936202451586
1701815864086402800,8.48140283203125,-0.2127846725463867,-0.007125029574334621,0.07982508573457599
1701815864096355800,8.49135595703125,-0.21807167303860187,0.022989830443263054,0.029578999575227496
1701815864106308900,8.501308837890624,-0.19855974783897398,0.025550328581035137,0.019404811563342807
1701815864116262000,8.511261962890625,-0.1916846013724804,0.029310850158333776,0.0021736907772719857
1701815864126215000,8.52121484375,-0.15498597905039788,-0.0015673954471945761,0.01798091624006629
1701815864136167000,8.5311669921875,-0.12866963453292846,-0.02081540901362896,0.030640199065953493
1701815864146120000,8.541119873046876,-0.09260288037359714,-0.01426233410835266,0.03739975632876157
1701815864156073000,8.551072998046875,-0.0429910004645586,-0.02406915011256933,0.029767361754179
1701815864166026000,8.56102587890625,-0.03191372613310814,0.021982699227333067,-0.012415537197887896
1701815864175979000,8.57097900390625,-0.02100187149643898,0.05926321309059858,-0.05659896231740713
1701815864185932000,8.58093212890625,-0.011432663640379905,0.09005378041267395,-0.11124679056704044
1701815864195885000,8.590885009765625,0.016593991926312446,0.1141068561732769,-0.14997078123688698
1701815864205838000,8.600838134765626,0.05133154330849647,0.11404986528903245,-0.17754180199056863
1701815864215790000,8.6107900390625,0.086504563498497,0.12881108883023262,-0.19971476309299468
1701815864225742800,8.620742919921875,0.09335457552373409,0.1344102240115404,-0.20170593691021202
1701815864235695900,8.63069580078125,0.05122223771512508,0.13916297149658202,-0.17662790201604364
1701815864245649000,8.64064892578125,0.04041267440915108,0.13897563223093748,-0.16304215199500321
1701815864255602000,8.650601806640625,0.042247488620877266,0.12026917819529771,-0.1736687599495053
1701815864265555000,8.660554931640625,0.0479144283413887,0.11250351262986659,-0.15825111832618713
1701815864275508000,8.670508056640625,0.05923194116950035,0.09682312841713428,-0.15821487796902656
1701815864285461000,8.6804609375,0.06913549554646015,0.07544511708468199,-0.18047522509396074
1701815864295414000,8.6904140625,0.055821255943179125,0.06272358267754316,-0.18337386914491652
1701815864305365800,8.70036572265625,0.06251403158009051,0.040159576430916784,-0.1951689363569021
1701815864315318800,8.71031884765625,0.07078326275348663,0.014583528886735439,-0.18062252461016176
1701815864325271800,8.720271728515625,0.06592705489397048,0.012715396927297114,-0.1301134036004543
1701815864335224800,8.730224853515624,0.08450199150443076,0.016477964331209658,-0.0841889800325036
1701815864345177900,8.740177734375,0.09333470177948475,0.018783026403188706,-0.04711246430873871
1701815864355131000,8.750130859375,0.12012567807137965,0.0003679565295577049,-0.05867459954768419
1701815864365084000,8.760083984375,0.10900631816387175,-0.005284370143711567,-0.08151537690907716
1701815864375037000,8.770036865234376,0.09406593866348266,0.018784195446968077,-0.08957476472407579
1701815864384990000,8.779989990234375,0.08701075945496559,0.016950258018076418,-0.11595219177901744
1701815864394941700,8.789941650390626,0.11314122601151466,0.010384323631227016,-0.1275505673751235
1701815864404894700,8.799894775390625,0.1586322265982628,0.032144027757644654,-0.12127864749878645
1701815864414847700,8.80984765625,0.19709142885208128,0.02573006906211376,-0.10270546445399523
1701815864424800800,8.81980078125,0.2361819147467613,0.017187866166234016,-0.08123451414108276
1701815864434753800,8.82975390625,0.2408563362985849,0.023441665863990782,-0.04976473238319158
1701815864444706800,8.839706787109375,0.23531682235002516,0.03690203593969345,-0.041568566446006296
1701815864454659800,8.849659912109376,0.18790508283376692,0.024392390717566013,-0.03450257358253002
1701815864464612900,8.85961279296875,0.12910101168751717,0.02812339393943548,-0.035651159095764155
1701815864474565000,8.869565185546875,0.057608139359951016,0.03139467069506645,-0.018619944795966147
1701815864484518000,8.879517822265624,-0.004883095866441726,0.04214548955112696,-0.015307897638529537
1701815864494471000,8.889470947265625,-0.04676876543760299,0.034654257012903686,-0.009076309772580862
1701815864504424000,8.899423828125,-0.05496200876533985,0.008668167363107203,-0.025541268491744994
1701815864514377000,8.909376953125,-0.05465162764191627,0.022855098147690295,-0.009932634340971708
1701815864524330000,8.919330078125,-0.07746259438693523,0.01396481246650219,-0.026156623911112547
1701815864534283000,8.929282958984375,-0.08453472473025321,0.0330395152926445,-0.02416851883381605
1701815864544236000,8.939236083984374,-0.09881693258285522,0.036794191651046276,-0.0003514437861740589
1701815864554189000,8.94918896484375,-0.11452771193385124,0.02867810521274805,0.03465761801376939
1701815864564141000,8.95914111328125,-0.09822890356183052,0.04692249469459057,0.049412411814182995
1701815864574093800,8.96909375,-0.09995382765829562,0.0553039540708065,0.05656856717914342
1701815864584046800,8.979046875,-0.051474166649579996,0.03264817788749933,0.024299305606633424
1701815864594000000,8.988999755859375,-0.0023719898283481597,0.027554654140770435,-0.0010137070871889592
1701815864603953000,8.998952880859376,0.04356792356967926,0.008133037573099135,-0.007793868746608495
1701815864613906000,9.008906005859375,0.035302199527621266,0.007547346639633178,0.007022153721749782
1701815864623859000,9.01885888671875,0.001211129355430603,-0.008055003900825976,0.03221504716724157
1701815864633812000,9.02881201171875,-0.05963818388283253,-0.010602642557024955,0.05799947676509618
1701815864643764000,9.038763916015625,-0.09601707273125648,-0.014277239416539668,0.12730740626901388
1701815864653716700,9.048716796875,-0.11314648670852184,-0.03332622327953577,0.1598901177048683
1701815864663669800,9.058669677734375,-0.09554068739116191,-0.056362230952084064,0.20207213987410066
1701815864673622800,9.068622802734374,-0.06876081701517105,-0.06910568493008613,0.2700517433837056
1701815864683575800,9.078575927734375,-0.06100421153903007,-0.06916764425039292,0.30158494576662775
1701815864693528800,9.08852880859375,-0.07836918783783912,-0.1287426997691393,0.3424517936840653
1701815864703481900,9.09848193359375,-0.12632161010205745,-0.13594371718913317,0.37570144459605215
1701815864713435000,9.108434814453124,-0.1544786140501499,-0.1550713192462921,0.3896208104856312
1701815864723388000,9.118387939453125,-0.16875906833708285,-0.1645285911604762,0.3925263226687908
1701815864733340000,9.12833984375,-0.12957505894005297,-0.1815320406705141,0.39637554544284936
1701815864743293000,9.13829296875,-0.060469958531856535,-0.19574732076674697,0.38516879951283334
1701815864753246000,9.148245849609374,0.01481003111898899,-0.21139263366609812,0.38418475691154597
1701815864763199000,9.158198974609375,0.10133213027417659,-0.19993045167028903,0.39868294560238715
1701815864773152000,9.168152099609374,0.1669488040447235,-0.17872896594852208,0.37681159779503937
1701815864783105000,9.17810498046875,0.21967560110390186,-0.1659860964924097,0.3722805302366614
1701815864793057800,9.188057861328126,0.2676128257989883,-0.1471051626726985,0.33682693953961135
1701815864803010800,9.1980107421875,0.2862631657332182,-0.115000005620718,0.2864442213885486
1701815864812963800,9.2079638671875,0.2432318332582712,-0.08811930521875619,0.216750945828855
1701815864822916000,9.217916015625,0.16924305246174334,-0.05357318475544452,0.17917159514948724
1701815864832868900,9.227868896484376,0.13022270919382573,-0.011721709714829921,0.10125877277702093
1701815864842822000,9.23782177734375,0.09199263952076435,-0.012948036639392375,0.07009981053397059
1701815864852775000,9.24777490234375,0.07771335427761078,-0.024386837759613988,0.024751579418778417
1701815864862728000,9.25772802734375,-0.007243979778885841,0.016293839935958385,0.04365823220163584
1701815864872681000,9.267680908203126,-0.03671440441310406,0.03689414489418268,0.043645080459117885
1701815864882634000,9.277634033203125,-0.05012918178141117,0.027075930713117122,0.0376787194006145
1701815864892587000,9.2875869140625,-0.05666121389865875,0.03082651541829109,0.01668766155913472
1701815864902539000,9.2975390625,-0.07696516625881195,0.03871872997283935,0.010898995155096054
1701815864912492000,9.307491943359375,-0.06253156723678112,0.051611237032711504,-0.011747867069393396
1701815864922444800,9.31744482421875,-0.07339899820983409,0.07183861702531576,-0.009210603676736354
1701815864932397800,9.327397705078125,-0.09637304656207561,0.0987412369981408,-0.02586655492335558
1701815864942350800,9.337350830078124,-0.10595102224647998,0.08443973992317914,-0.03338774420842528
1701815864952303900,9.347303955078125,-0.1400485221594572,0.06753215200304985,-0.05006649180874228
1701815864962257000,9.3572568359375,-0.15768530113697052,0.06437134988456965,-0.05152925783768296
1701815864972210000,9.3672099609375,-0.14868191047012805,0.06960574340671301,-0.07466302679628134
1701815864982163000,9.377162841796874,-0.16579963400959968,0.04849515083879232,-0.07017784420624375
1701815864992116000,9.387115966796875,-0.20686580389142034,0.03998597342967987,-0.07135185642167925
1701815865002067700,9.397067626953126,-0.2589437816530466,0.05546089819818735,-0.06595306611806154
1701815865012020700,9.407020751953125,-0.27311025417149065,0.04725742573738098,-0.08643924317732453
1701815865021973800,9.416973876953126,-0.24523031359910963,0.057254795877635475,-0.1130200838498771
1701815865031926800,9.4269267578125,-0.1747130083054304,0.07654431049823761,-0.15163783766627312
1701815865041879800,9.4368798828125,-0.07339782916605472,0.06671791301071643,-0.16933409174606204
1701815865051832800,9.446832763671875,0.025946926683187484,0.027874095353484153,-0.20631167713999746
1701815865061785900,9.456785888671876,0.10689794770777225,0.03328472222536802,-0.16067220799326895
1701815865071739000,9.46673876953125,0.20301438916027545,0.018678396984934807,-0.09523732053041457
1701815865081692000,9.47669189453125,0.24606150372624397,0.06382803678810596,-0.0490668132469058
1701815865091644200,9.48664404296875,0.15868717165589333,0.06410013172775507,-0.006616787791252136
1701815865101597200,9.49659716796875,-0.031152094110846518,0.04575461995899677,-0.01371902101188898
1701815865111550200,9.50655029296875,-0.1270394029825926,0.08423428047895432,-0.008870119675993918
1701815865121503200,9.516503173828125,-0.15441022498905657,0.1034688500419259,-0.04129208759218454
1701815865131456300,9.526456298828125,-0.15288520737886427,0.0850254308566451,-0.0794619515106082
1701815865141409300,9.5364091796875,-0.15506138237416744,0.06425239968001842,-0.1282797584325075
1701815865151362300,9.5463623046875,-0.15715923143625257,0.05988835925161838,-0.12758330060094594
1701815865161315300,9.5563154296875,-0.14204583345651625,0.071248834438622,-0.08441051382869481
1701815865171268400,9.566268310546874,-0.1501268485814333,0.05729483562707901,-0.01913140144944191
1701815865181220000,9.57622021484375,-0.14724223305582998,0.051293549385666846,0.05331453381925821
1701815865191173000,9.586173095703124,-0.18276421281397343,0.053988487558066844,0.054282502068579194
1701815865201126100,9.596126220703125,-0.18167291044592856,0.02857084544599056,0.010544190368056297
1701815865211079200,9.6060791015625,-0.1198100362509489,0.0029611878931522367,-0.038001813875138755
1701815865221032200,9.6160322265625,-0.06851824043095112,0.001723170530796051,-0.07506663916110992
1701815865230985200,9.625985107421876,-0.04514437910616398,-0.012314414910972118,-0.08900222553312778
1701815865240938200,9.635938232421875,-0.023052374285459518,-0.03223404412865639,-0.0865133313268423
1701815865250891300,9.645891357421876,0.0020797288835048672,-0.01864069532305002,-0.058148529846966265
1701815865260844300,9.65584423828125,0.02464870356619358,0.0009457564175128936,-0.042342765688896174
1701815865270796000,9.665796142578126,0.03938508492708206,0.031331250070035455,-0.05984305880516767
1701815865280749000,9.6757490234375,0.05437982496321201,0.04325637340247631,-0.03436433415561914
1701815865290702000,9.6857021484375,0.06963643080592155,0.08528934248983859,-0.04539543125778436
1701815865300655000,9.695655029296875,0.05666881268322468,0.08567571145892143,-0.06293371829688549
1701815865310608100,9.705608154296876,0.045240240696072576,0.05410217706561088,-0.09005582623928785
1701815865320561200,9.71556103515625,-0.013999299257993697,0.06737433109283447,-0.12755348998457192
1701815865330514200,9.72551416015625,0.013132453295588492,0.09166793761104344,-0.1262847852230072
1701815865340467200,9.73546728515625,0.06304360841214657,0.09161737646758555,-0.14148323113769293
1701815865350420200,9.745420166015625,0.06274725581407546,0.05808335565626621,-0.15497604217827318
1701815865360372000,9.7553720703125,0.06568038665652275,0.06110562608689069,-0.13325608554035426
1701815865370325000,9.765324951171875,0.06758183636367321,0.08769932624101638,-0.09307546632140874
1701815865380278000,9.775278076171874,0.07963292416334151,0.07025923887938261,-0.11936521509289741
1701815865390231000,9.78523095703125,0.10060615408718586,0.075655837225914,-0.13842647391557691
1701815865400184000,9.79518408203125,0.09628478375673294,0.05732084685117006,-0.1785793283447623
1701815865410137000,9.80513720703125,0.10640987192988395,0.045970600797235965,-0.1821463731765747
1701815865420090000,9.815090087890624,0.10455869110524654,0.050907472677528855,-0.20954057605862617
1701815865430043100,9.825043212890625,0.10713760168254374,0.06498188299834728,-0.20786241371333597
1701815865439996200,9.83499609375,0.08362403962612151,0.05440788201391697,-0.21785364637374877
1701815865449949200,9.84494921875,0.06207096398770809,0.058709670861065384,-0.20716624814271925
1701815865459901200,9.854901123046876,0.041726679617166515,0.06946721171885728,-0.18127046712487935
1701815865469854200,9.864854248046875,0.03058160074651241,0.05759235726892948,-0.15760522163808344
1701815865479807200,9.87480712890625,0.04839139820337295,0.06086158819794654,-0.13829583327323197
1701815865489760300,9.88476025390625,0.09616320320367812,0.050314767481386656,-0.10260434216707945
1701815865499713300,9.89471337890625,0.09615677346289157,0.032199265076220035,-0.07331278123110532
1701815865509666300,9.904666259765625,0.07372574594616889,0.03118716542422771,-0.026521219439804553
1701815865519619300,9.914619384765626,0.0267173265337944,0.01540390535891056,0.033956922398507595
1701815865529572400,9.924572265625,-0.04323416157066822,-0.011473580172657967,0.07441811212450265
1701815865539525400,9.934525390625,-0.056574120137095445,-0.03126958301067352,0.12109393858164548
1701815865549477000,9.94447705078125,-0.0848486129850149,-0.034569793599843975,0.13232728025764226
1701815865559430100,9.95443017578125,-0.09995733478963374,-0.041346740388870235,0.1179778523877263
1701815865569383200,9.964383056640624,-0.11136837112009525,-0.03960808002799749,0.1224982524216175
1701815865579336200,9.974336181640625,-0.09432371281683444,-0.043327100551128386,0.1456011878505349
1701815865589289200,9.984289306640624,-0.07136310846805573,-0.05859393552690744,0.12995353686362504
1701815865599242200,9.9942421875,-0.015115151545405388,-0.06998948202729224,0.13990589881837368
1701815865609195300,10.0041953125,0.038112580773234365,-0.07920563866198062,0.152872640158236
1701815865619148300,10.014148193359375,0.0807797561109066,-0.06745587189644575,0.1819134412035346
1701815865629101300,10.024101318359374,0.10573591819107532,-0.06701455786973237,0.20120310195460914
1701815865639053000,10.034052978515625,0.13286708622276783,-0.05656155291646719,0.20000410142838954
1701815865649006000,10.044006103515626,0.1454161866724491,-0.045702597510814666,0.19711407907530665
1701815865658959000,10.053958984375,0.15338263550698755,-0.02781009020656347,0.18140388424620033
1701815865668912000,10.063912109375,0.13377718680500983,-0.04865560209751129,0.14808759783878922
1701815865678865200,10.073865234375,0.14034721284508705,-0.04563830010294914,0.1350441380009055
1701815865688818200,10.083818115234376,0.18345453316569327,-0.021592823126912117,0.10843158701583742
1701815865698771200,10.093771240234375,0.20103110638856886,-0.0430064902946353,0.07854132953435182
1701815865708724200,10.10372412109375,0.18634324034452437,-0.0558919830918312,0.02619958627000451
1701815865718677200,10.11367724609375,0.18741466896831988,-0.03169014651030302,0.03705883393660187
1701815865728629000,10.12362890625,0.1523608912438154,-0.004755962355434894,0.0590345189012587
1701815865738582000,10.13358203125,0.13523790700733662,-0.016475333982706068,0.06233370657712221
1701815865748535000,10.14353515625,0.0961339771091938,-0.021835691972076892,0.06459551402926444
1701815865758488000,10.153488037109375,0.0964648164987564,-0.014072656755149364,0.0786275465130806
1701815865768441000,10.163441162109375,0.07175064648091793,-0.013228607146441937,0.08432561202421784
1701815865778394000,10.17339404296875,0.05375146393179893,-0.04282324268221855,0.028874066176265475
1701815865788347100,10.18334716796875,0.010202245062589644,-0.057335167637467384,0.038694910705834626
1701815865798300200,10.193300048828124,0.021498130580782888,-0.04155278435498476,0.02783580916970968
1701815865808253000,10.2032529296875,-0.005841711765527725,-0.04650046989023685,0.005623538970202208
1701815865818205200,10.213205078125,-0.04859481182098389,-0.03567717031985521,-0.04374488757178187
1701815865828158200,10.223158203125,-0.04630056340396404,-0.014266133500635624,-0.04495382497012615
1701815865838111200,10.233111328125,-0.04926818103790283,0.010894903501868248,-0.006996873150020838
1701815865848064300,10.243064208984375,-0.08222937039732933,0.015073942752182483,0.010773176818341015
1701815865858017300,10.253017333984374,-0.10737842470109463,0.03281330532133579,0.022356208714842795
1701815865867970300,10.26297021484375,-0.12028466802537441,0.04339139795899391,0.017924363747239113
1701815865877923300,10.27292333984375,-0.12473697125911712,0.05367547608613968,0.0014228724099695682
1701815865887876400,10.28287646484375,-0.15170973385870457,0.032820904105901716,-0.02020034585520625
1701815865897829000,10.2928291015625,-0.18972411495447158,0.025756372547149655,-0.02720642522498965
1701815865907781000,10.302781005859375,-0.20110124901533125,0.033980887795984745,-0.036043519414216275
1701815865917734100,10.312734130859376,-0.1979179428040981,0.0631336247831583,-0.043838264943659305
1701815865927687200,10.322687255859375,-0.17352292173802852,0.07250760232806205,-0.06997253089249134
1701815865937640200,10.33264013671875,-0.13941080877780915,0.08482055593430995,-0.08396934593245386
1701815865947593200,10.34259326171875,-0.09702771107852458,0.13011311133950948,-0.09341741162687539
1701815865957546200,10.352546142578126,-0.03393500282764435,0.13689414978176354,-0.0846203571870923
1701815865967499300,10.362499267578125,-0.0036801498174667355,0.10648235264420508,-0.05752469886019826
1701815865977452300,10.372452392578126,-0.014603110370039939,0.07672638906687497,-0.007927139737457036
1701815865987405000,10.382405029296875,-0.020762802043557165,0.06459785211682319,0.0037479543566703794
1701815865997357000,10.392357177734375,-0.030897242566943168,0.03825608089715242,-0.007027560549229383
1701815866007310000,10.40231005859375,-0.03650865270793438,0.020853110675513743,0.005278524924814701
1701815866017263000,10.41226318359375,-0.04663900157809257,-0.0035766894429922103,-0.007609452090412378
1701815866027216100,10.422216064453124,-0.033459202009439463,-0.01358048932403326,-0.004317863199114799
1701815866037169200,10.432169189453125,-0.03577449321448803,0.004099836534261703,0.04481178615093231
1701815866047122200,10.4421220703125,-0.02203705976307392,0.013099427808821201,0.01753419538587332
1701815866057075200,10.4520751953125,-0.01516249781847,-0.0009808277308940886,0.0008908113598823546
1701815866067028200,10.4620283203125,0.02849427307844162,-0.006283902575075626,-0.00511339749097824
1701815866076981000,10.47198095703125,0.0362374345511198,-0.016176058775186537,0.0032797523230314253
1701815866086934000,10.48193408203125,0.005541267514228821,-0.005159866981208324,0.041469051594287154
1701815866096886300,10.49188623046875,-0.05642915870845318,-0.02423047815412283,0.012892799320816993
1701815866106839300,10.50183935546875,-0.0956891559511423,0.0019026187509298324,-0.007415536953508854
1701815866116792300,10.511792236328125,-0.149472768586874,0.03957330097556114,-0.014035831876099109
1701815866126745000,10.5217451171875,-0.1961672997444868,0.0322463190883398,-0.01658215535804629
1701815866136698000,10.531697998046875,-0.1893143651098013,0.043292613759636875,-0.011056523804366588
1701815866146651100,10.541651123046876,-0.09588847791552543,0.06356558645963668,0.022807751874625682
1701815866156604200,10.551604248046875,0.007060439905524254,0.027693478089570997,0.050584524333477016
1701815866166557200,10.56155712890625,0.11147124697268009,-0.028743571664392946,0.09212781020775437
1701815866176510200,10.57151025390625,0.1431371358245611,-0.05383095890879631,0.1077042956545949
1701815866186462200,10.581462158203125,0.09743979901075363,-0.06185235280096531,0.11739566858559847
1701815866196415200,10.591415283203125,0.027938392761349677,-0.0572927898004651,0.12637377868071198
1701815866206368000,10.601367919921875,0.019447043269872663,-0.03336772433370352,0.0946035526715219
1701815866216321000,10.611321044921874,0.009375146588683127,-0.022372283066809176,0.06245806360915303
1701815866226274000,10.621274169921875,0.07136895368695259,-0.013526713310182095,0.023904314939677714
1701815866236227000,10.63122705078125,0.07812310412228107,-0.0015378770917654036,0.008752776906639337
1701815866246180000,10.64118017578125,-0.05568389329910278,0.02267886479794979,-0.09888137612119316
1701815866256133000,10.651133056640624,-0.2720014161467552,0.10264584322124719,-0.19080825692936776
1701815866266086100,10.661086181640625,-0.5480903938680887,0.2055705033838749,-0.34913594762310385
1701815866276038100,10.6710380859375,-0.7201356442689896,0.31392274155318733,-0.4185759790740907
1701815866285991200,10.6809912109375,-0.6197901869446039,0.3524886190518737,-0.42340588344857094
1701815866295944000,10.69094384765625,-0.42109307646155353,0.2898579753547907,-0.3420049266993999
1701815866305897000,10.70089697265625,-0.22335808900892734,0.23273761951178312,-0.26679069576114417
1701815866315850000,10.71085009765625,0.024224925196170807,0.14409341363608835,-0.17691081061065195
1701815866325803000,10.720802978515625,0.20506489194929597,0.08561696700900792,-0.090390318890661
1701815866335756000,10.730756103515626,0.26559038006067276,0.02636485983431339,0.0009141922354698181
1701815866345709000,10.740708984375,0.26188626484572886,-0.013927110804617403,0.11312456713765859
1701815866355662000,10.750662109375,0.2033382142871618,-0.037278760297596455,0.1313473293095827
1701815866365614000,10.760614013671875,0.16410568957328794,-0.0431435606777668,0.09233531547859311
1701815866375567000,10.770567138671876,0.17373393414020538,-0.03691811029165983,0.009148352095484733
1701815866385519900,10.780519775390625,0.15334814871549604,-0.02491933720111847,-0.0634786388285458
1701815866395473000,10.790472900390625,0.1579126801520586,-0.011758242332935332,-0.04864785718247294
1701815866405426000,10.800426025390625,0.17004793910384178,0.008762567648291588,-0.019540420641750097
1701815866415379000,10.81037890625,0.23766893843412398,0.010843465575575828,0.009535451716929674
1701815866425332000,10.82033203125,0.2671779415130615,-0.018416531178355216,0.046417906173318625
1701815866435285000,10.830284912109375,0.2981090863496065,-0.0409954427331686,0.06972206326276063
1701815866445237200,10.8402373046875,0.33480478606224057,-0.0439516621902585,0.1093859651312232
1701815866455190300,10.850190185546875,0.32742169007360933,-0.06263327404558658,0.13187369127124549
1701815866465143300,10.860143310546874,0.3028805385351181,-0.07076923422813415,0.1439795779980719
1701815866475096000,10.870095947265625,0.29256723431348797,-0.10307166741788387,0.16801497197151183
1701815866485049000,10.880049072265624,0.26901100215911866,-0.11924860297590494,0.19496756856590508
1701815866495002000,10.890002197265625,0.2512882984638214,-0.1252674248740077,0.1945430595435202
1701815866504955100,10.899955078125,0.18261165260076523,-0.1469222073212266,0.18104834880679846
1701815866514908200,10.909908203125,0.057042322170734405,-0.14208879581540823,0.18302578635960817
1701815866524861200,10.919861083984374,-0.021418635603785513,-0.050148471003770824,0.17888079550936817
1701815866534814200,10.929814208984375,-0.02893909423649311,-0.011664426569640635,0.1586795728713274
1701815866544766200,10.93976611328125,-0.039349429091811175,-0.028941432324051854,0.11758008524179459
1701815866554719000,10.949718994140625,-0.04214110563695431,-0.03164689189046621,0.04469824277386069
1701815866564672000,10.959672119140626,-0.08270867834687233,-0.010730652850866317,0.03497764374837279
1701815866574625000,10.969625,-0.10932020641863345,0.0036541385933756827,0.04402282773032784
1701815866584578000,10.979578125,-0.13307868314683435,0.00010083002597093582,0.04419190068691969
1701815866594531000,10.989531005859375,-0.116516255402565,-0.016752689619362354,0.06470759610161185
1701815866604484000,10.999484130859376,-0.08985738105773926,-0.030285248148441312,0.09261559372469783
1701815866614437000,11.00943701171875,-0.026996143475174903,-0.039007191525399686,0.06253054432347417
1701815866624390100,11.01939013671875,-0.011562427499890327,-0.02863017441779375,0.047238428775966165
1701815866634342100,11.029342041015624,-0.022687632626295088,-0.019514847809076308,0.039473493862897155
1701815866644295000,11.039294921875,-0.057767129313945766,-0.019773498745262623,0.022772388300299644
1701815866654248000,11.049248046875,-0.08366729424595833,0.007266483871638775,0.013782441636919975
1701815866664201000,11.059200927734375,-0.10803075112998485,0.03011632132232189,0.025710341448336838
1701815866674154000,11.069154052734374,-0.09442892675697803,0.05877805992215872,-0.006088233872503042
1701815866684107000,11.07910693359375,-0.08967267214059829,0.07558277198970317,-0.04794555413201451
1701815866694060000,11.08906005859375,-0.09063537969291209,0.03919774566143751,-0.09292787454426288
1701815866704013000,11.099012939453125,-0.060630702051520345,0.02610737794190645,-0.114987876791507
1701815866713966000,11.108966064453124,-0.011730769804120062,0.028448680371046066,-0.07700973605290055
1701815866723918000,11.11891796875,0.014948562806844711,0.023479075264930725,-0.009622253217548131
1701815866733871000,11.12887109375,0.04708148464858532,-0.012623334729671478,0.04541851987242698
1701815866743824100,11.13882421875,0.06823591635823249,0.004341244074702263,0.03573080020323396
1701815866753777200,11.148777099609376,0.10369067609906196,0.002787584891915321,0.0035810733571648595
1701815866763730200,11.158730224609375,0.08332476441860198,0.008989069880545139,-0.02609466459080577
1701815866773683000,11.168682861328126,0.04460194279253483,0.04031213664412498,-0.04420563695132732
1701815866783636000,11.178635986328125,-0.0017488894939422606,0.03219137403070926,-0.04620382503122091
1701815866793589000,11.188589111328126,0.008724573725461959,0.044103930142521855,-0.04213073037341237
1701815866803542000,11.1985419921875,0.006129296535253524,0.03914455416947603,-0.01710033401325345
1701815866813494000,11.208493896484375,0.04163490968048572,0.0464656908378005,-0.01924932874068618
1701815866823447000,11.218447021484375,0.0568856703042984,0.05152034387886524,-0.028335136993974445
1701815866833400000,11.228400146484375,0.008014379629492759,0.029223464135825633,-0.05182224943488836
1701815866843353000,11.23835302734375,0.000623100334405899,0.04169569995701313,-0.06312456469386815
1701815866853306000,11.24830615234375,0.013590133935213088,0.0584802460193634,-0.05781359880417585
1701815866863259100,11.258259033203124,0.02448094578385353,0.07172785012722015,-0.08357903144061565
1701815866873212200,11.268212158203125,0.02527005033493042,0.03821048818975687,-0.10114464487805962
1701815866883165200,11.278165283203125,0.019999416455626487,0.03364186509996652,-0.115207949282974
1701815866893118200,11.2881181640625,-0.0005552957952022552,0.06654314096570015,-0.13080840012729167
1701815866903070000,11.298070068359374,-0.039784897899627684,0.06473229215145111,-0.14023922242596745
1701815866913023000,11.30802294921875,-0.049832244661450385,0.041107378675043584,-0.11295578644201158
1701815866922976000,11.31797607421875,-0.053882396835088726,0.040299569423496724,-0.10081424387991428
1701815866932929000,11.327928955078125,-0.018604747226834296,0.024439736990630626,-0.07813289486393332
1701815866942882000,11.337882080078124,0.008213701593875885,0.009608663083612919,-0.03768558753281832
1701815866952835000,11.3478349609375,-0.03202361624836921,-0.009112403999269008,-0.024900778631120918
1701815866962788000,11.3577880859375,-0.05441255818903446,-0.011899404369294642,0.0019596096351742745
1701815866972741000,11.3677412109375,-0.06427987220883369,0.00440408017784357,0.0070446578145027154
1701815866982694100,11.377694091796876,-0.07296352940201759,0.019960545749962328,-0.017381196781247853
1701815866992646000,11.38764599609375,-0.08123977483808993,0.003066401833295822,0.025077158111333847
1701815867002599000,11.397598876953126,-0.08173720296621322,0.0146636083856225,0.01553089273944497
1701815867012552000,11.407552001953125,-0.07214578327834606,0.009936872124671935,0.02178673826381564
1701815867022505000,11.4175048828125,-0.055634208938479424,-0.010846972706913947,0.06546835134103894
1701815867032458000,11.4274580078125,0.011423895812034606,-0.0042614568367600435,0.07842953972294926
1701815867042411000,11.437410888671875,0.012858312529325485,-0.02312105560749769,0.052422261154651636
1701815867052364000,11.447364013671875,0.0017331074029207228,-0.03455284246504307,0.059968584880977865
1701815867062317000,11.457317138671876,0.03922551045119762,-0.002588262927532196,0.10159224251508712
1701815867072270000,11.46727001953125,0.06981061832904815,0.011112345644831656,0.1164724162608385
1701815867082222000,11.47722216796875,0.034679099193215365,0.012181728442013264,0.07997004716321826
1701815867092175000,11.487175048828124,0.031086043137311933,0.0022270283997058867,0.07826850394234061
1701815867102128000,11.497128173828125,0.01891571287214756,0.005664309372007847,0.07815116117298603
1701815867112081000,11.507080810546874,0.0404290410220623,-0.010808394262194633,0.08413052784353495
1701815867122034000,11.517033935546875,0.04022796549201012,-0.002751636795699596,0.08494842009767889
1701815867131987000,11.526987060546874,0.0762047032803297,-0.011708850233256816,0.09159677207097411
1701815867141940000,11.53693994140625,0.10686462996006012,-0.027513153086602685,0.0809722099430859
1701815867151893000,11.54689306640625,0.1296522158294916,-0.030980244675278663,0.053062897145748134
1701815867161846000,11.556845947265625,0.15297931540310383,-0.060222413511574265,0.06441811163574457
1701815867171798000,11.566798095703126,0.14702479091286658,-0.026837445782124995,0.08188435635194181
1701815867181751000,11.5767509765625,0.132833183953166,-0.034739304947853086,0.07577186482101679
1701815867191704000,11.5867041015625,0.024861469534039497,-0.0301987389087677,0.047765813650935886
1701815867201656800,11.59665673828125,-0.09168459648489952,0.010749065290391444,0.02882657377272844
1701815867211609900,11.60660986328125,-0.16299918963611126,0.041594285409152505,-0.00960793243125081
1701815867221563000,11.61656298828125,-0.13967501267194746,0.07263853523135184,-0.018164602243900298
1701815867231516000,11.626515869140626,-0.07673311106860638,0.020890812337398527,-0.03310629691854119
1701815867241469000,11.636468994140625,-0.03674596859514713,-0.003555646654963493,-0.03974836528152227
1701815867251422000,11.646421875,-0.01112228251695633,0.015536591827869414,-0.020509119543433187
1701815867261374000,11.6563740234375,-0.012119476860761641,0.005796411319077014,0.02293283955901861
1701815867271327000,11.666326904296875,0.0059486792713403696,-0.017913257831335065,0.05047331904396415
1701815867281279700,11.67627978515625,-0.014123217898607253,-0.01479044963568449,0.03983063673749566
1701815867291232800,11.686232666015625,-0.0322071561217308,0.0024143676653504372,0.0069654550984501835
1701815867301185800,11.696185791015624,-0.05201309583187103,0.0031108254969120022,-0.029395167440921067
1701815867311138800,11.706138916015625,-0.03953706061840057,0.03628361178040504,-0.04374956374689937
1701815867321091800,11.716091796875,-0.056496963247656816,0.04464841228276491,-0.08283522733598947
1701815867331044900,11.726044921875,-0.06404430988729,0.048426177255809305,-0.08244155184328555
1701815867340998000,11.735997802734374,-0.0704144294410944,0.051255555462837214,-0.06282821209579706
1701815867350950000,11.745949951171875,-0.0497182628929615,0.08157061422765255,-0.0495765163347125
1701815867360903000,11.75590283203125,-0.017461422410607337,0.06980272728353738,-0.07341229608282446
1701815867370856000,11.76585595703125,0.012370236751437187,0.05101093305200338,-0.05698620806932449
1701815867380808700,11.77580859375,0.021897943553328515,0.0412283747062087,-0.036499738749116654
1701815867390761700,11.78576171875,0.011583470287919043,0.03753448862433433,-0.006200169814378023
1701815867400714800,11.79571484375,-0.03193769153058529,0.00911444982588291,-0.0018394903868436813
1701815867410667800,11.805667724609375,-0.06126549282371997,0.001584346581995487,0.004174947597086429
1701815867420620800,11.815620849609376,-0.07652326771020888,0.011771978597342967,0.015737375096976758
1701815867430573800,11.82557373046875,-0.07405307820439339,0.014679390476644039,0.016123597935587167
1701815867440526000,11.835526123046876,-0.07039046404361725,0.019538520945608616,0.015525778172910213
1701815867450479000,11.84547900390625,-0.09444938502311706,0.027241350407898424,0.008273322826623917
1701815867460432000,11.855431884765625,-0.0861865835905075,0.025479309171438216,0.011944558685272931
1701815867470385000,11.865385009765625,-0.04627250635325909,0.014999708472192286,0.03336918563842773
1701815867480338000,11.875337890625,0.03410626774132251,0.011893266889452933,0.07806114480197429
1701815867490291000,11.885291015625,0.12672843733727931,-0.027975509901344776,0.12640928838551044
1701815867500244000,11.895243896484375,0.1444102245002985,-0.0455158427670598,0.1357028941705823
1701815867510197000,11.905197021484375,0.11275894869565962,-0.07053250286281108,0.15729776312410831
1701815867520150000,11.91514990234375,0.02513794838786125,-0.059335693804919716,0.13626374292373655
1701815867530102000,11.92510205078125,-0.023581951117515564,-0.04483224441707134,0.09774930335134267
1701815867540055000,11.935054931640625,-0.003999298769235611,-0.021688392455875873,0.06446458112597465
1701815867550007800,11.9450078125,0.04090250375270843,-0.03957651584595442,0.039608518419414755
1701815867559960800,11.9549609375,0.1314993050009012,-0.046885669815540314,0.00901405819132924
1701815867569913900,11.964913818359374,0.18363047425448895,-0.051399347847700116,-0.036025545366108414
1701815867579867000,11.974866943359375,0.2118786636173725,-0.04207037848830223,-0.038844109918177126
1701815867589820000,11.98481982421875,0.2108417217850685,-0.027038813573122024,-0.03243307383209467
1701815867599773000,11.99477294921875,0.2088759746700525,-0.031254093180596826,-0.058331485198438164
1701815867609726000,12.004725830078126,0.15108371091485023,-0.0007338672325015068,-0.04166355125308036
1701815867619678000,12.014677978515625,0.06732756934165954,0.03209960409402847,-0.022084698297083375
1701815867629630700,12.024630615234376,-0.014369301614165305,0.038758185200393196,-0.03200330411270261
1701815867639583700,12.034583740234375,-0.08639818051457404,0.05210281994193792,-0.031444062794744966
1701815867649536800,12.044536865234376,-0.17822306225299833,0.06819120043367147,-0.0393070512548089
1701815867659489800,12.05448974609375,-0.19091595508754253,0.07475742708146571,-0.05376286210864782
