time,seconds_elapsed,z,y,x
1701815855615258400,0.01025830078125,0.0004849616379942745,0.01949247531592846,0.0007715177489444613
1701815855625211400,0.02021142578125,0.00478303711861372,0.015158446505665779,-0.001406947965733707
1701815855635164400,0.030164306640625,0.008441421203315258,0.013541375286877155,-0.0028700886759907007
1701815855645117400,0.040117431640625,0.008972189389169216,0.012465458363294601,-0.006325273774564266
1701815855655070500,0.050070556640625,0.006412891671061516,0.01642744243144989,-0.007927698083221912
1701815855665023500,0.0600234375,0.0034610440488904715,0.018735870718955994,-0.011492072604596615
1701815855674976500,0.0699765625,0.00014647385978605598,0.01876836083829403,-0.013645504601299763
1701815855684929500,0.079929443359375,0.00006258428766159341,0.020957745611667633,-0.011995410546660423
1701815855694881500,0.089881591796875,-0.00675164582207799,0.021528195589780807,-0.011691809631884098
1701815855704834600,0.09983447265625,-0.009439308196306229,0.01836489327251911,-0.012494753114879131
1701815855714787600,0.10978759765625,-0.011566374450922012,0.01882481947541237,-0.01130991242825985
1701815855724740600,0.11974072265625,-0.013766678981482983,0.016872722655534744,-0.014181332662701607
1701815855734693600,0.129693603515625,-0.01696593314409256,0.01691639982163906,-0.01601305417716503
1701815855744646700,0.139646728515625,-0.019543340429663658,0.018502045422792435,-0.018980614840984344
1701815855754599700,0.149599609375,-0.022851252928376198,0.019246399402618408,-0.022551914677023888
1701815855764551700,0.1595517578125,-0.02111327461898327,0.02154976688325405,-0.02251383103430271
1701815855774504700,0.169504638671875,-0.021620873361825943,0.021692512556910515,-0.023011043667793274
1701815855784457500,0.17945751953125,-0.02142646163702011,0.02267708256840706,-0.02014734596014023
1701815855794410500,0.189410400390625,-0.021567609161138535,0.01944134198129177,-0.0160633884370327
1701815855804363500,0.199363525390625,-0.021981198340654373,0.01937210001051426,-0.010759171098470688
1701815855814316500,0.209316650390625,-0.02688807249069214,0.020377177745103836,-0.0027742148377001286
1701815855824269600,0.21926953125,-0.031264979392290115,0.017552362754940987,0.002186188939958811
1701815855834222600,0.22922265625,-0.03729544207453728,0.015327290631830692,0.0043808999471366405
1701815855844174600,0.239174560546875,-0.03953009843826294,0.014971226453781128,0.006875749211758375
1701815855854127600,0.249127685546875,-0.042867839336395264,0.015662316232919693,0.004169445019215345
1701815855864080400,0.259080322265625,-0.042157839983701706,0.013157613575458527,-0.0046783750876784325
1701815855874033400,0.269033447265625,-0.04147473722696304,0.014582671225070953,-0.0073015885427594185
1701815855883986400,0.278986328125,-0.039678968489170074,0.013469736091792583,-0.006015814375132322
1701815855893939500,0.288939453125,-0.03977830708026886,0.010298976674675941,0.00037950044497847557
1701815855903892500,0.298892578125,-0.04089869558811188,0.004707669839262962,0.0029968551825731993
1701815855913845500,0.308845458984375,-0.040156472474336624,0.003311907174065709,0.00806032307446003
1701815855923797500,0.318797607421875,-0.04223347455263138,0.0075718993321061134,0.01137089915573597
1701815855933750500,0.32875048828125,-0.04433177784085274,0.010018279775977135,0.010855310596525669
1701815855943703600,0.33870361328125,-0.04170803353190422,0.011411911807954311,0.007681088987737894
1701815855953656300,0.34865625,-0.0366930328309536,0.016943829134106636,0.0020754013676196337
1701815855963609300,0.358609375,-0.031078023836016655,0.023121563717722893,-0.006612895056605339
1701815855973562400,0.368562255859375,-0.0246113371104002,0.025789253413677216,-0.016329703852534294
1701815855983515400,0.378515380859375,-0.014510499313473701,0.025841983035206795,-0.02694639563560486
1701815855993468400,0.388468505859375,-0.006381732877343893,0.03099040687084198,-0.03695828467607498
1701815856003420700,0.398420654296875,0.0008125304593704641,0.03563416004180908,-0.04368250072002411
1701815856013373700,0.408373779296875,0.00908697210252285,0.0457184873521328,-0.052202749997377396
1701815856023326700,0.41832666015625,0.015674833208322525,0.0543881393969059,-0.056722935289144516
1701815856033279700,0.42827978515625,0.021093834191560745,0.06308815628290176,-0.05817728489637375
1701815856043232500,0.438232421875,0.023395869880914688,0.06837666034698486,-0.04963146895170212
1701815856053185500,0.448185546875,0.0256291963160038,0.07172531634569168,-0.042631350457668304
1701815856063138600,0.458138671875,0.02587607130408287,0.0722249299287796,-0.0388302206993103
1701815856073090600,0.468090576171875,0.02436818927526474,0.07379486411809921,-0.03875325620174408
1701815856083043600,0.478043701171875,0.018193650990724564,0.07658132910728455,-0.04133918508887291
1701815856092996400,0.487996337890625,0.017767544835805893,0.07027709484100342,-0.044536042958498
1701815856102949400,0.497949462890625,0.018222680315375328,0.05955919995903969,-0.047079894691705704
1701815856112902400,0.50790234375,0.017785921692848206,0.052326854318380356,-0.04782078415155411
1701815856122855400,0.51785546875,0.0172069501131773,0.04604845121502876,-0.053699981421232224
1701815856132808400,0.527808349609375,0.02021525613963604,0.03711061552166939,-0.05937064811587334
1701815856142761500,0.537761474609375,0.02490721456706524,0.030598388984799385,-0.060325659811496735
1701815856152713500,0.54771337890625,0.028072381392121315,0.032936111092567444,-0.056957293301820755
1701815856162666500,0.55766650390625,0.029289444908499718,0.03886723890900612,-0.05458201840519905
1701815856172619300,0.567619384765625,0.0300188846886158,0.043895021080970764,-0.05008473992347717
1701815856182572300,0.577572265625,0.02967294119298458,0.04896514490246773,-0.04837818443775177
1701815856192525300,0.587525390625,0.024815334007143974,0.055939432233572006,-0.04699866846203804
1701815856202478300,0.597478271484375,0.018159030005335808,0.059666525572538376,-0.04448411241173744
1701815856212431400,0.607431396484375,0.005814213305711746,0.06196936219930649,-0.04307130351662636
1701815856222384400,0.61738427734375,-0.0085466168820858,0.062124092131853104,-0.04103931039571762
1701815856232336600,0.627336669921875,-0.019395535811781883,0.05704943835735321,-0.039027824997901917
1701815856242289700,0.63728955078125,-0.026743730530142784,0.05137797072529793,-0.04081108048558235
1701815856252242700,0.64724267578125,-0.02725638821721077,0.048540905117988586,-0.04616136848926544
1701815856262195500,0.657195556640625,-0.026391660794615746,0.05110446363687515,-0.04747883602976799
1701815856272148500,0.6671484375,-0.02586568519473076,0.05156359076499939,-0.04632169380784035
1701815856282101500,0.6771015625,-0.024694960564374924,0.0507875457406044,-0.04604552313685417
1701815856292054500,0.687054443359375,-0.020252540707588196,0.050635747611522675,-0.04334587603807449
1701815856302007600,0.697007568359375,-0.01678617112338543,0.06427912414073944,-0.04592274874448776
1701815856311959600,0.70695947265625,-0.017827998846769333,0.05594875290989876,-0.033963028341531754
1701815856321912600,0.71691259765625,-0.012180499732494354,0.052007805556058884,-0.021384384483098984
1701815856331865600,0.726865478515625,0.0009166600648313761,0.049372609704732895,-0.012395949102938175
1701815856341818600,0.736818603515625,0.00914263166487217,0.050458911806344986,-0.005221659783273935
1701815856351771400,0.746771484375,0.01721520535647869,0.05505260080099106,0.004047205671668053
1701815856361724400,0.756724365234375,0.024149810895323753,0.059834305197000504,0.007677893154323101
1701815856371677400,0.766677490234375,0.02474343031644821,0.06617928296327591,0.010031861253082752
1701815856381630500,0.77663037109375,0.023360183462500572,0.07204942405223846,0.01137089915573597
1701815856391582500,0.78658251953125,0.017076987773180008,0.07071837782859802,0.0035055188927799463
1701815856401535500,0.796535400390625,0.012553608976304531,0.06449057906866074,-0.0076182386837899685
1701815856411488500,0.806488525390625,0.010878480039536953,0.057252638041973114,-0.015957128256559372
1701815856421441500,0.816441650390625,0.008380701765418053,0.05168876051902771,-0.019537482410669327
1701815856431394600,0.82639453125,0.007374825421720743,0.05354152247309685,-0.02105575054883957
1701815856441347300,0.836347412109375,0.010875817388296127,0.05921964719891548,-0.0193108469247818
1701815856451300400,0.84630029296875,0.01666446402668953,0.06795907765626907,-0.019220566377043724
1701815856461252400,0.85625244140625,0.020789701491594315,0.0746377557516098,-0.01751294732093811
1701815856472450600,0.867450439453125,0.02630484104156494,0.07764898985624313,-0.01932656019926071
1701815856482403600,0.877403564453125,0.026259833946824074,0.07499141991138458,-0.023730363696813583
1701815856492356600,0.887356689453125,0.027292074635624886,0.07456851005554199,-0.02827398292720318
1701815856502309600,0.8973095703125,0.02719886414706707,0.0701143741607666,-0.0327339768409729
1701815856512262400,0.907262451171875,0.027848409488797188,0.06893965601921082,-0.037038709968328476
1701815856522214400,0.91721435546875,0.0248494241386652,0.06736759096384048,-0.040878456085920334
1701815856532167400,0.92716748046875,0.021861089393496513,0.06550364196300507,-0.042276617139577866
1701815856542120400,0.937120361328125,0.020061325281858444,0.06103485822677612,-0.04376745596528053
1701815856552073500,0.947073486328125,0.01822667382657528,0.06663255393505096,-0.042757581919431686
1701815856562026500,0.957026611328125,0.014542191289365292,0.05825212225317955,-0.04033970087766647
1701815856571979500,0.9669794921875,0.013978133909404278,0.0545780248939991,-0.04048191383481026
1701815856581932500,0.9769326171875,0.016920126974582672,0.0490540936589241,-0.03738652169704437
1701815856591885600,0.986885498046875,0.018384067341685295,0.04430141672492027,-0.035112980753183365
1701815856601837300,0.99683740234375,0.016863135620951653,0.04572700709104538,-0.034261833876371384
1701815856611790300,1.006790283203125,0.01601092517375946,0.0487331859767437,-0.02901034615933895
1701815856621743400,1.016743408203125,0.013228453695774078,0.04935609921813011,-0.024563133716583252
1701815856631696400,1.0266962890625,0.007155381143093109,0.04451074078679085,-0.01691773161292076
1701815856641649400,1.0366494140625,0.004033890087157488,0.039544478058815,-0.012576245702803135
1701815856651602400,1.0466025390625,0.0008372978190891445,0.03189241886138916,-0.009740511886775494
1701815856661555500,1.056555419921875,-0.00199364242143929,0.024803616106510162,-0.009240370243787766
1701815856671508500,1.066508544921875,-0.0035052525345236063,0.01950152963399887,-0.00965369213372469
1701815856681460500,1.07646044921875,-0.004875182639807463,0.018849587067961693,-0.010749583132565022
1701815856691413500,1.08641357421875,-0.000630902883131057,0.018612034618854523,-0.008674181997776031
1701815856701366500,1.096366455078125,0.0006085322820581496,0.022174278274178505,-0.005917277652770281
1701815856711319600,1.106319580078125,0.004544417839497328,0.027056917548179626,-0.006434197071939707
1701815856721272600,1.1162724609375,0.004770520608872175,0.030305707827210426,-0.01119060255587101
1701815856731225600,1.1262255859375,0.0021371867042034864,0.03370283544063568,-0.012202337384223938
1701815856741178600,1.1361787109375,0.0033593112602829933,0.03536598011851311,-0.018277008086442947
1701815856751131600,1.146131591796875,-0.0027454528026282787,0.03368872031569481,-0.021992383524775505
1701815856761083400,1.15608349609375,-0.005050418432801962,0.03316514194011688,-0.024024376645684242
1701815856771036400,1.166036376953125,-0.00945262424647808,0.0316692478954792,-0.02347256988286972
1701815856780989400,1.175989501953125,-0.008432100526988506,0.031318508088588715,-0.020531639456748962
1701815856790942500,1.1859423828125,-0.007573231123387814,0.031806666404008865,-0.018275409936904907
1701815856800895500,1.1958955078125,-0.004325772635638714,0.030182935297489166,-0.018259432166814804
1701815856810848500,1.2058486328125,-0.002781938062980771,0.03139787167310715,-0.01625513657927513
1701815856820801500,1.215801513671875,-0.001005343277938664,0.029633792117238045,-0.01853799819946289
1701815856830754600,1.225754638671875,0.001327053178101778,0.028730448335409164,-0.02287442237138748
1701815856840707600,1.23570751953125,-0.0014205301413312554,0.03116803988814354,-0.029150694608688354
1701815856850659300,1.245659423828125,0.0007954862085171044,0.028509939089417458,-0.03184821084141731
1701815856860612400,1.2556123046875,0.004790760576725006,0.025783393532037735,-0.031504396349191666
1701815856870565400,1.2655654296875,0.004081827122718096,0.02485714666545391,-0.02552133798599243
1701815856880518400,1.275518310546875,0.006125803105533123,0.02576128952205181,-0.018145447596907616
1701815856890471400,1.285471435546875,0.0038538603112101555,0.029161613434553146,-0.011235077865421772
1701815856900424400,1.295424560546875,0.0013907026732340455,0.031131288036704063,-0.005983057431876659
1701815856910377500,1.30537744140625,-0.0009922938188537955,0.03117975778877735,-0.002138518262654543
1701815856920329500,1.31532958984375,-0.003977963700890541,0.03232251852750778,-0.004861600697040558
1701815856930282200,1.3252822265625,-0.006031260825693607,0.03153795376420021,-0.01019671093672514
1701815856940235300,1.3352353515625,-0.002231995342299342,0.028805281966924667,-0.01980726048350334
1701815856950188300,1.345188232421875,0.0017566210590302944,0.02358974888920784,-0.025478728115558624
1701815856960141300,1.355141357421875,0.0037499971222132444,0.02815200947225094,-0.01811135932803154
1701815856970094300,1.36509423828125,0.00475507415831089,0.020929250866174698,-0.015388543717563152
1701815856980047400,1.37504736328125,0.0068150293081998825,0.0210695993155241,-0.01085584331303835
1701815856990000400,1.38500048828125,0.003441869281232357,0.022757243365049362,-0.007763647008687258
1701815856999952600,1.39495263671875,0.0009094694978557527,0.022660305723547935,-0.006999586243182421
1701815857009905700,1.40490576171875,0.0006764429272152483,0.018264491111040115,-0.009738381020724773
1701815857019858400,1.4148583984375,0.0004391552647575736,0.013392237946391106,-0.017198961228132248
1701815857029811500,1.4248115234375,0.0013712616637349129,0.011108044534921646,-0.017955297604203224
1701815857039764500,1.434764404296875,0.0017190704820677638,0.01044518407434225,-0.016025038436055183
1701815857049717500,1.444717529296875,0.002144377212971449,0.01655713841319084,-0.01455683819949627
1701815857059670500,1.45467041015625,-0.001350222621113062,0.022756977006793022,-0.010662764310836792
1701815857069623600,1.46462353515625,-0.006494384724646807,0.026080869138240814,-0.006346579175442457
1701815857079575600,1.474575439453125,-0.00857324805110693,0.024219052866101265,-0.004490888677537441
1701815857089527800,1.48452783203125,-0.01050457265228033,0.020101273432374,-0.000016245283404714428
1701815857099480800,1.494480712890625,-0.009949569590389729,0.01799151673913002,0.00033928672201000154
1701815857109433900,1.504433837890625,-0.008786567486822605,0.015922507271170616,-0.009533317759633064
1701815857119387000,1.514386962890625,-0.00666269613429904,0.013619139790534973,-0.018330270424485207
1701815857129339600,1.524339599609375,-0.004290618933737278,0.011211109347641468,-0.025468342006206512
1701815857139292700,1.534292724609375,0.0008918926469050348,0.013797570951282978,-0.023322632536292076
1701815857149245700,1.54424560546875,-0.00032197617110796273,0.017352093011140823,-0.01913321390748024
1701815857159197700,1.55419775390625,0.0018788601737469435,0.02303900569677353,-0.014213024638593197
1701815857169150700,1.564150634765625,0.0009454221581108868,0.02436845563352108,-0.009631321765482426
1701815857179103700,1.574103759765625,0.0008042746339924634,0.02618340030312538,-0.007241134997457266
1701815857189056800,1.584056884765625,-0.0008881642133928835,0.025914421305060387,-0.009887784719467163
1701815857199009800,1.594009765625,-0.004267183132469654,0.026035329326987267,-0.014396250247955322
1701815857208962600,1.603962646484375,-0.005816343706101179,0.024408936500549316,-0.01908048428595066
1701815857218915600,1.61391552734375,-0.010304302908480167,0.024289093911647797,-0.023244336247444153
1701815857228868600,1.62386865234375,-0.009984989650547504,0.02250264585018158,-0.02135748602449894
1701815857238820900,1.63382080078125,-0.007154582068324089,0.0236456748098135,-0.014718226157128811
1701815857248774000,1.64377392578125,-0.0075484635308384895,0.029088109731674194,-0.012736834585666656
1701815857258727000,1.653726806640625,-0.006333529483526945,0.03453986719250679,-0.010222277604043484
1701815857268680000,1.663679931640625,-0.0034437335561960936,0.03761235624551773,-0.010031062178313732
1701815857278633000,1.673633056640625,-0.0024027039762586355,0.03627997636795044,-0.005773200653493404
1701815857288586000,1.6835859375,-0.001130511867813766,0.037467215210199356,-0.007592672016471624
1701815857298538800,1.693538818359375,0.0032959282398223877,0.029872411862015724,-0.011993279680609703
1701815857308491800,1.70349169921875,0.004579305648803711,0.028498752042651176,-0.011888351291418076
1701815857318444800,1.71344482421875,0.005797169171273708,0.023600401356816292,-0.009945575147867203
1701815857328396800,1.723396728515625,0.008146876469254494,0.02185230143368244,-0.010118148289620876
1701815857338349800,1.733349853515625,0.01050244178622961,0.02027677558362484,-0.009727994911372662
1701815857348302800,1.743302734375,0.01007953193038702,0.02082006074488163,-0.007900799624621868
1701815857358255900,1.753255859375,0.012663330882787704,0.016090553253889084,-0.009647566825151443
1701815857368209000,1.763208984375,0.014629010111093521,0.013511547818779945,-0.004063184838742018
1701815857378162000,1.773161865234375,0.010869958437979221,0.011612181551754475,-0.0019062906503677368
1701815857388114700,1.78311474609375,0.010043845511972904,0.011070228181779385,-0.0017576862592250109
1701815857398067700,1.793067626953125,0.005242698825895786,0.017468206584453583,0.001306280493736267
1701815857408019700,1.803019775390625,-0.00022983079543337226,0.020355338230729103,0.0012215919559821486
1701815857417972700,1.81297265625,-0.0037918086163699627,0.01853453554213047,0.00019654128118418157
1701815857427925800,1.82292578125,-0.0037265613209456205,0.019235746935009956,-0.0008950884221121669
1701815857437878800,1.832878662109375,-0.002745985286310315,0.015093465335667133,0.001651426195167005
1701815857447831800,1.842831787109375,-0.00169563468080014,0.014668690972030163,0.005771868862211704
1701815857457784800,1.852784912109375,-0.003683950752019882,0.013730459846556187,0.009195894934237003
1701815857467737600,1.862737548828125,-0.004113784991204739,0.015321964398026466,0.014606639742851257
1701815857477690600,1.872690673828125,-0.006384662352502346,0.015000521205365658,0.01637151651084423
1701815857487643000,1.882642822265625,-0.011244931258261204,0.019990485161542892,0.017074324190616608
1701815857497596000,1.892595947265625,-0.014062289148569107,0.021456556394696236,0.01708577573299408
1701815857507549000,1.902548828125,-0.013200490735471249,0.023487748578190804,0.021261079236865044
1701815857517502000,1.912501953125,-0.014996526762843132,0.02702149748802185,0.01636645570397377
1701815857527455000,1.922455078125,-0.014179201796650887,0.027721907943487167,0.00574896577745676
1701815857537408000,1.932407958984375,-0.010308563709259033,0.02648034319281578,-0.00041784998029470444
1701815857547361000,1.942361083984375,-0.009140235371887684,0.02550775744020939,0.0010314423125237226
1701815857557313800,1.952313720703125,-0.009237440302968025,0.03130253031849861,0.006913566030561924
1701815857567265800,1.962265869140625,-0.014611433260142803,0.03814951702952385,0.018753979355096817
1701815857577218800,1.97221875,-0.02046106569468975,0.04165423661470413,0.030847128480672836
1701815857587171800,1.982171875,-0.016875119879841805,0.034506313502788544,0.026326678693294525
1701815857597124900,1.992124755859375,-0.001517202821560204,0.006009423173964024,0.004397411365061998
1701815857607078000,2.002077880859375,0.015813583508133888,-0.019601397216320038,-0.039272572845220566
1701815857617031000,2.012031005859375,0.06487780064344406,-0.05783453583717346,-0.0650240033864975
1701815857626984000,2.02198388671875,0.0969419926404953,-0.07708226889371872,-0.060257479548454285
1701815857636937000,2.03193701171875,0.11134729534387589,0.05055771768093109,-0.023617977276444435
1701815857646888700,2.041888671875,0.12631826102733612,0.24851740896701813,0.026093918830156326
1701815857656841700,2.051841796875,0.14247912168502808,0.36280563473701477,0.09687887877225876
1701815857666794800,2.061794677734375,0.16783533990383148,0.39832207560539246,0.15461966395378113
1701815857676747800,2.071747802734375,0.19462807476520538,0.32963329553604126,0.17414677143096924
1701815857686700800,2.08170068359375,0.19100163877010345,0.18489980697631836,0.16788993775844574
1701815857696653800,2.09165380859375,0.16212685406208038,-0.22163385152816772,-0.0006926882197149098
1701815857706606800,2.10160693359375,0.1173761636018753,-0.6652672290802002,-0.4210798442363739
1701815857716560000,2.111559814453125,0.02003362961113453,-0.7184505462646484,-0.8026264309883118
1701815857726511600,2.12151171875,-0.05279157683253288,-0.7372551560401917,-1.00083327293396
1701815857736464600,2.131464599609375,-0.04435468092560768,-0.8852560520172119,-0.993595540523529
1701815857746417700,2.141417724609375,-0.022065620869398117,-0.8078989386558533,-0.9386351108551025
1701815857756370700,2.15137060546875,-0.06325726956129074,-0.6668864488601685,-0.7949607968330383
1701815857766323700,2.16132373046875,-0.10235460102558136,-0.563373327255249,-0.5823348164558411
1701815857776276700,2.17127685546875,-0.11204904317855835,-0.5506026744842529,-0.3220856189727783
1701815857786229800,2.181229736328125,-0.10817227512598038,-0.5234504342079163,-0.06805175542831421
1701815857796182800,2.191182861328125,-0.09967732429504395,-0.471468448638916,0.14949361979961395
1701815857806134800,2.201134765625,-0.0725753977894783,-0.3824392557144165,0.2940950095653534
1701815857816087800,2.211087890625,-0.03455131873488426,-0.2831134498119354,0.3551735281944275
1701815857826040800,2.221040771484375,-0.015449795871973038,-0.22966328263282776,0.33924171328544617
1701815857835993900,2.230993896484375,-0.006484530866146088,-0.2377995103597641,0.27375590801239014
1701815857845947000,2.24094677734375,-0.002424808219075203,-0.28225138783454895,0.18692514300346375
1701815857855900000,2.25089990234375,-0.015477227047085762,-0.3487001955509186,0.12223110347986221
1701815857865853000,2.26085302734375,-0.04150563105940819,-0.4078865647315979,0.08461688458919525
1701815857875806000,2.270805908203125,-0.07629770040512085,-0.4383864104747772,0.0596497468650341
1701815857885757700,2.2807578125,-0.12009791284799576,-0.4372343122959137,0.05191699415445328
1701815857895710700,2.290710693359375,-0.1749182790517807,-0.3843926787376404,0.08135930448770523
1701815857905663700,2.300663818359375,-0.1912330687046051,-0.2847382426261902,0.12604475021362305
1701815857915616800,2.31061669921875,-0.2101638913154602,-0.2476462870836258,0.21942077577114105
1701815857925569800,2.32056982421875,-0.24840502440929413,-0.2583628296852112,0.345567524433136
1701815857935522800,2.330522705078125,-0.29316475987434387,-0.32815656065940857,0.47692394256591797
1701815857945475800,2.340475830078125,-0.3526880145072937,-0.3784884512424469,0.6134868264198303
1701815857955428900,2.350428955078125,-0.3992682993412018,-0.3595893383026123,0.7608219981193542
1701815857965380900,2.360380859375,-0.4465159773826599,-0.3185659945011139,0.9250668287277222
1701815857975333600,2.370333740234375,-0.47865232825279236,-0.2959086298942566,1.0706983804702759
1701815857985286700,2.38028662109375,-0.48124757409095764,-0.3128148913383484,1.1575464010238647
1701815857995239700,2.39023974609375,-0.4772677719593048,-0.3761264979839325,1.1688262224197388
1701815858005192700,2.400192626953125,-0.4733521044254303,-0.4531581699848175,1.102975606918335
1701815858015145700,2.410145751953125,-0.4969668984413147,-0.522942841053009,0.9868481755256653
1701815858025098800,2.4200986328125,-0.530127227306366,-0.5800391435623169,0.8412547707557678
1701815858035051800,2.4300517578125,-0.5671771168708801,-0.6332229971885681,0.6846052408218384
1701815858045003800,2.440003662109375,-0.5974463820457458,-0.6998965740203857,0.4993051588535309
1701815858054956800,2.449956787109375,-0.6264692544937134,-0.7674359083175659,0.3259490728378296
1701815858064909800,2.459909912109375,-0.6242989897727966,-0.8116872906684875,0.2303573042154312
1701815858074862600,2.469862548828125,-0.5970591306686401,-0.8577429056167603,0.21572856605052948
1701815858084816600,2.479816650390625,-0.5770199298858643,-0.8830330967903137,0.25706934928894043
1701815858094769700,2.489769775390625,-0.5792825222015381,-0.812993049621582,0.33784008026123047
1701815858104722700,2.49972265625,-0.596242368221283,-0.6557416319847107,0.42532598972320557
1701815858114675700,2.50967578125,-0.6054816246032715,-0.43329471349716187,0.4988633394241333
1701815858124627700,2.519627685546875,-0.6186637878417969,-0.1916961967945099,0.5677787661552429
1701815858134580700,2.529580810546875,-0.642949640750885,0.024942634627223015,0.6399842500686646
1701815858144533800,2.53953369140625,-0.6604447960853577,0.21595999598503113,0.6850390434265137
1701815858154486800,2.54948681640625,-0.6617385149002075,0.3921501934528351,0.6999908685684204
1701815858164439600,2.559439453125,-0.6318498849868774,0.5124241709709167,0.7060021162033081
1701815858174392600,2.569392578125,-0.5866475105285645,0.5641770958900452,0.7256996631622314
1701815858184345600,2.579345703125,-0.536993682384491,0.5596923232078552,0.7469916343688965
1701815858194298600,2.589298583984375,-0.48953375220298767,0.5189393162727356,0.7311700582504272
1701815858204250600,2.599250732421875,-0.4630419611930847,0.43535760045051575,0.6684219837188721
1701815858214203600,2.60920361328125,-0.4561246633529663,0.32408779859542847,0.5683995485305786
1701815858224156700,2.61915673828125,-0.4538109004497528,0.18944795429706573,0.44233906269073486
1701815858234109700,2.629109619140625,-0.45109421014785767,0.030169619247317314,0.2963365912437439
1701815858244062700,2.639062744140625,-0.44812825322151184,-0.1012621745467186,0.15313123166561127
1701815858254015700,2.649015625,-0.4448094069957733,-0.17386366426944733,0.03940599411725998
1701815858263968800,2.65896875,-0.43747586011886597,-0.20360931754112244,-0.03358592465519905
1701815858273921800,2.668921875,-0.4193029999732971,-0.1741454303264618,-0.06827306002378464
1701815858283873500,2.67887353515625,-0.38640549778938293,-0.1025596633553505,-0.06471747905015945
1701815858293826600,2.68882666015625,-0.34325936436653137,-0.00028069718973711133,-0.02166374959051609
1701815858303779600,2.698779541015625,-0.29383188486099243,0.0987183228135109,0.03635241463780403
1701815858313732600,2.708732666015625,-0.24321319162845612,0.17524504661560059,0.06922061741352081
1701815858323685600,2.718685546875,-0.19716686010360718,0.24516767263412476,0.07692008465528488
1701815858333638700,2.728638671875,-0.15874969959259033,0.28679129481315613,0.08113373816013336
1701815858343591700,2.738591796875,-0.09780565649271011,0.32967111468315125,0.05964042618870735
1701815858353544700,2.748544677734375,-0.027302460744976997,0.36046499013900757,0.0007736482657492161
1701815858363497700,2.758497802734375,0.05042003095149994,0.4047671854496002,-0.09011604636907578
1701815858373449500,2.768449462890625,0.12867861986160278,0.5200653076171875,-0.16644516587257385
1701815858383402500,2.778402587890625,0.16841377317905426,0.6503210067749023,-0.21103927493095398
1701815858393355500,2.78835546875,0.1700148731470108,0.7643109560012817,-0.24296124279499054
1701815858403308500,2.79830859375,0.18154609203338623,0.81300288438797,-0.26736459136009216
1701815858413261600,2.808261474609375,0.24941568076610565,0.7915881276130676,-0.2645847797393799
1701815858423214600,2.818214599609375,0.27926573157310486,0.6225783228874207,-0.22305651009082794
1701815858433167600,2.828167724609375,0.27242645621299744,0.4691629707813263,-0.2078392207622528
1701815858443120600,2.83812060546875,0.22293640673160553,0.3714795410633087,-0.22873757779598236
1701815858453073000,2.848072998046875,0.15690067410469055,0.3095889985561371,-0.310526967048645
1701815858463025700,2.858025634765625,0.0884113535284996,0.2613216042518616,-0.4180784821510315
1701815858472978700,2.867978759765625,0.011688081547617912,0.2341962605714798,-0.4896754324436188
1701815858482931700,2.877931640625,-0.06255445629358292,0.21392054855823517,-0.48160257935523987
1701815858492884700,2.887884765625,-0.10698876529932022,0.16902364790439606,-0.3971553444862366
1701815858502837800,2.897837646484375,-0.11780785769224167,0.13092899322509766,-0.28668689727783203
1701815858512790800,2.907790771484375,-0.10663163661956787,0.09826771169900894,-0.18292640149593353
1701815858522743800,2.917743896484375,-0.08350927382707596,0.06408444046974182,-0.09971247613430023
1701815858532695800,2.92769580078125,-0.057021208107471466,0.02346564456820488,-0.057731471955776215
1701815858542648600,2.937648681640625,-0.02419987879693508,-0.030187996104359627,-0.0645664781332016
1701815858552601600,2.9476015625,0.016996027901768684,-0.0896766260266304,-0.10451868921518326
1701815858562554600,2.9575546875,0.05956905335187912,-0.16503822803497314,-0.13864976167678833
1701815858572507600,2.967507568359375,0.10479538887739182,-0.25081145763397217,-0.15974251925945282
1701815858582460700,2.977460693359375,0.14903394877910614,-0.34551453590393066,-0.16723187267780304
1701815858592413700,2.98741357421875,0.18556000292301178,-0.44727790355682373,-0.16818873584270477
1701815858602366700,2.99736669921875,0.21115778386592865,-0.5454976558685303,-0.1704968959093094
1701815858612318700,3.007318603515625,0.22397184371948242,-0.6112537980079651,-0.17226576805114746
1701815858622271700,3.017271728515625,0.21927376091480255,-0.6230936646461487,-0.15580478310585022
1701815858632224500,3.027224609375,0.18962426483631134,-0.5872094631195068,-0.1214209720492363
1701815858642177500,3.037177490234375,0.15396426618099213,-0.4996691942214966,-0.06832952052354813
1701815858652130600,3.047130615234375,0.11659132689237595,-0.3928029537200928,0.0035867453552782536
1701815858662083600,3.05708349609375,0.08231484889984131,-0.2790513336658478,0.08713383972644806
1701815858672036600,3.06703662109375,0.04964505136013031,-0.18214024603366852,0.16595248878002167
1701815858681989600,3.07698974609375,0.02244991436600685,-0.10684895515441895,0.21982450783252716
1701815858691941600,3.086941650390625,0.0035539884120225906,-0.0584380105137825,0.24514557421207428
1701815858701894700,3.096894775390625,-0.009797503240406513,-0.052556417882442474,0.2411348521709442
1701815858711847700,3.10684765625,-0.012132829055190086,-0.07564309239387512,0.21115244925022125
1701815858721800400,3.116800537109375,-0.011404454708099365,-0.10865377634763718,0.15801706910133362
1701815858731753500,3.12675341796875,-0.006555104628205299,-0.15399223566055298,0.1092095747590065
1701815858741706500,3.13670654296875,0.0026343988720327616,-0.1928703784942627,0.0752904936671257
1701815858751659500,3.146659423828125,0.006896788254380226,-0.21384304761886597,0.06966882944107056
1701815858761612500,3.156612548828125,0.012916597537696362,-0.22978472709655762,0.08917887508869171
1701815858771564800,3.166564697265625,0.018732141703367233,-0.23239915072917938,0.12081190198659897
1701815858781517800,3.176517822265625,0.022043250501155853,-0.2250400334596634,0.14521844685077667
1701815858791470800,3.186470947265625,0.021770009770989418,-0.21250081062316895,0.15669400990009308
1701815858801423600,3.196423583984375,0.021447502076625824,-0.18257354199886322,0.16168317198753357
1701815858811376600,3.206376708984375,0.01649269089102745,-0.15711957216262817,0.15445081889629364
1701815858821329700,3.21632958984375,0.015794675797224045,-0.1517953872680664,0.13929957151412964
1701815858831282700,3.22628271484375,0.014540326781570911,-0.16471092402935028,0.11837618052959442
1701815858841235700,3.236235595703125,0.01344470214098692,-0.18502098321914673,0.10160624980926514
1701815858851187700,3.246187744140625,0.017178719863295555,-0.21282705664634705,0.09267587214708328
1701815858861140700,3.256140625,0.02371012233197689,-0.24728915095329285,0.0849846675992012
1701815858871093800,3.26609375,0.031561654061079025,-0.2756134569644928,0.07850652933120728
1701815858881046800,3.276046875,0.0380171574652195,-0.2953847646713257,0.07372003048658371
1701815858890999600,3.28599951171875,0.043425239622592926,-0.30446961522102356,0.07266487926244736
1701815858900952600,3.29595263671875,0.03309350460767746,-0.2836514115333557,0.07163503766059875
1701815858910905600,3.305905517578125,0.018966233357787132,-0.23500053584575653,0.06696252524852753
1701815858920858600,3.315858642578125,0.008124238811433315,-0.15975797176361084,0.06057919189333916
1701815858930810600,3.325810546875,-0.005879194475710392,-0.07676108926534653,0.0588473379611969
1701815858940763600,3.335763671875,-0.02051752619445324,-0.011059575714170933,0.06006227061152458
1701815858950716700,3.345716552734375,-0.03315049782395363,0.03092782199382782,0.060556553304195404
1701815858960669700,3.355669677734375,-0.05315190181136131,0.07194050401449203,0.058940548449754715
1701815858970622700,3.365622802734375,-0.07572884857654572,0.12122096866369247,0.05072230100631714
1701815858980575500,3.375575439453125,-0.0874030813574791,0.17096002399921417,0.041853174567222595
1701815858990528500,3.385528564453125,-0.09332621842622757,0.2094927728176117,0.04134344682097435
1701815859000481500,3.3954814453125,-0.08499904721975327,0.23519787192344666,0.04453577473759651
1701815859010433800,3.405433837890625,-0.0729122906923294,0.2421891987323761,0.04886367917060852
1701815859020386800,3.41538671875,-0.05469626933336258,0.24190929532051086,0.04711158573627472
1701815859030339800,3.42533984375,-0.0383809432387352,0.2457173615694046,0.0377684161067009
1701815859040292900,3.43529296875,-0.03160133585333824,0.25450578331947327,0.022609172388911247
1701815859050246000,3.445245849609375,-0.02863590605556965,0.2715686559677124,-0.007270429749041796
1701815859060198700,3.45519873046875,-0.021407553926110268,0.28195950388908386,-0.037328463047742844
1701815859070151700,3.465151611328125,-0.0036301547661423683,0.28010809421539307,-0.060918476432561874
1701815859080104700,3.475104736328125,0.015894277021288872,0.2578887939453125,-0.06313156336545944
1701815859090057700,3.4850576171875,0.02936028502881527,0.22617881000041962,-0.05179369077086449
1701815859100009700,3.495009765625,0.03665494918823242,0.19226478040218353,-0.039913859218358994
1701815859109962800,3.504962646484375,0.03929014876484871,0.16147278249263763,-0.031206920742988586
1701815859119915800,3.514915771484375,0.03548981621861458,0.1354539692401886,-0.031068969517946243
1701815859129868800,3.524868896484375,0.02701457403600216,0.10804897546768188,-0.046132609248161316
1701815859139821800,3.53482177734375,0.022947659716010094,0.08129112422466278,-0.06656570732593536
1701815859149774800,3.54477490234375,0.020268786698579788,0.05712240934371948,-0.08733783662319183
1701815859159727900,3.554727783203125,0.023014238104224205,0.039504799991846085,-0.10038919001817703
1701815859169680000,3.564679931640625,0.024998560547828674,0.030296387150883675,-0.09402289986610413
1701815859179633000,3.5746328125,0.02701963298022747,0.02539137750864029,-0.07752062380313873
1701815859189585700,3.584585693359375,0.03214835003018379,0.01895291917026043,-0.046915844082832336
1701815859199538700,3.59453857421875,0.02713947556912899,-0.00018908442871179432,-0.014217818155884743
1701815859209491700,3.60449169921875,0.022643260657787323,-0.0188961923122406,0.004501274786889553
1701815859219444700,3.61444482421875,0.01435230765491724,-0.034565698355436325,0.007217166479676962
1701815859229397800,3.624397705078125,0.0057255299761891365,-0.05194548889994621,0.004366785287857056
1701815859239350800,3.634350830078125,-0.004722050856798887,-0.06365594267845154,-0.005304750520735979
1701815859249303800,3.6443037109375,-0.010545318946242332,-0.0688062310218811,-0.012709137052297592
1701815859259255800,3.654255859375,-0.013831127434968948,-0.07174023240804672,-0.005132444202899933
1701815859269208800,3.664208740234375,-0.017707090824842453,-0.07430006563663483,0.012749350629746914
1701815859279161600,3.67416162109375,-0.024223048239946365,-0.0719120055437088,0.027594609186053276
1701815859289114600,3.684114501953125,-0.04285798594355583,-0.07188644260168076,0.030412500724196434
1701815859299067600,3.694067626953125,-0.06263355165719986,-0.08049936592578888,0.016689497977495193
1701815859309020700,3.704020751953125,-0.08225066214799881,-0.08259900659322739,-0.005869074258953333
1701815859318973700,3.7139736328125,-0.10917682200670242,-0.07764819264411926,-0.021200360730290413
1701815859328926700,3.7239267578125,-0.1328382045030594,-0.07767482101917267,-0.02840287983417511
1701815859338879000,3.73387890625,-0.15035274624824524,-0.07306435704231262,-0.02786838263273239
1701815859348832000,3.74383203125,-0.1601254940032959,-0.06581922620534897,-0.01745062880218029
1701815859358784800,3.75378466796875,-0.16460785269737244,-0.06648315489292145,0.0059838565066456795
1701815859368737800,3.76373779296875,-0.14920227229595184,-0.06907626986503601,0.025406822562217712
1701815859378690800,3.77369091796875,-0.1302592009305954,-0.08140138536691666,0.03110012784600258
1701815859388643800,3.783643798828125,-0.1121331974864006,-0.08510743826627731,0.040828656405210495
1701815859398596900,3.793596923828125,-0.08499637991189957,-0.08118859678506851,0.041253428906202316
1701815859408550000,3.8035498046875,-0.05062642693519592,-0.06619419902563095,0.03711674362421036
1701815859418502000,3.813501953125,-0.004307396709918976,-0.04862213134765625,0.021193968132138252
1701815859428455000,3.823454833984375,0.01973562128841877,-0.05837462469935417,0.00487358495593071
1701815859438408000,3.833407958984375,0.05866943672299385,-0.06775880604982376,-0.019883161410689354
1701815859448360700,3.843360595703125,0.06556037068367004,-0.05855545401573181,-0.028188228607177734
1701815859458313700,3.853313720703125,0.045092642307281494,-0.0647646114230156,-0.023030750453472137
1701815859468266800,3.863266845703125,0.014949122443795204,-0.06648315489292145,-0.012309396639466286
1701815859478219800,3.8732197265625,-0.02275245077908039,-0.06424849480390549,-0.005942577496170998
1701815859488172800,3.8831728515625,-0.05579748377203941,-0.060566939413547516,-0.0060384515672922134
1701815859498124800,3.893124755859375,-0.07774912565946579,-0.05231194198131561,-0.005419000051915646
1701815859508077800,3.903077880859375,-0.0912417620420456,-0.04965490475296974,-0.00025752768851816654
1701815859518030800,3.91303076171875,-0.10109013319015503,-0.04452325776219368,0.00848270021378994
1701815859527983900,3.92298388671875,-0.11319047212600708,-0.057259295135736465,0.024037959054112434
1701815859537936600,3.9329365234375,-0.14075632393360138,-0.09403941035270691,0.03660035505890846
1701815859547889700,3.9428896484375,-0.19226904213428497,-0.13813576102256775,0.05898156017065048
1701815859557842700,3.9528427734375,-0.24294313788414001,-0.15917474031448364,0.09027929604053497
1701815859567795700,3.962795654296875,-0.27035772800445557,-0.14760038256645203,0.11788801848888397
1701815859577747700,3.972747802734375,-0.27386802434921265,-0.12451955676078796,0.13416285812854767
1701815859587700700,3.98270068359375,-0.25908827781677246,-0.1490323543548584,0.12434778362512589
1701815859597653800,3.99265380859375,-0.24522680044174194,-0.16716130077838898,0.1291974037885666
1701815859607606800,4.002606689453125,-0.173102006316185,-0.15981203317642212,0.12500372529029846
1701815859617559800,4.012559814453125,-0.12102922052145004,-0.16355323791503906,0.1333996057510376
1701815859627512600,4.0225126953125,-0.06560724228620529,-0.13312529027462006,0.15791133046150208
1701815859637465600,4.032465576171875,0.016471650451421738,-0.018133196979761124,0.18143557012081146
1701815859647418600,4.042418701171875,0.07736189663410187,-0.00818096473813057,0.19544166326522827
1701815859657371000,4.052370849609375,0.08087700605392456,0.011127752251923084,0.19561636447906494
1701815859667324000,4.062323974609375,0.07163077592849731,0.047329165041446686,0.18303240835666656
1701815859677277000,4.07227685546875,0.04507027193903923,0.08672504127025604,0.15898112952709198
1701815859687230000,4.08222998046875,-0.005362540949136019,0.12024172395467758,0.12590201199054718
1701815859697183000,4.092182861328125,-0.04844876006245613,0.14738279581069946,0.08972003310918808
1701815859707135700,4.1021357421875,-0.04325612634420395,0.17562802135944366,0.05224962159991264
1701815859717088800,4.1120888671875,-0.015737684443593025,0.1794099658727646,0.02569950371980667
1701815859727041800,4.122041748046875,-0.0057441722601652145,0.1607063263654709,0.020201673731207848
1701815859736993800,4.131993896484375,-0.006325806491076946,0.14831410348415375,0.024203339591622353
1701815859746946800,4.14194677734375,-0.01745036244392395,0.13443982601165771,0.023600134998559952
1701815859756899800,4.15189990234375,-0.023754332214593887,0.12331021577119827,0.020989704877138138
1701815859766852900,4.161852783203125,-0.037702903151512146,0.1078023612499237,0.029160281643271446
1701815859776806000,4.171805908203125,-0.05602198839187622,0.08812399953603745,0.03785523772239685
1701815859786759000,4.181759033203125,-0.0802498310804367,0.06501468271017075,0.03671354055404663
1701815859796711700,4.191711669921875,-0.10257910192012787,0.0480269156396389,0.029381856322288513
1701815859806664700,4.201664794921875,-0.12203375995159149,0.027213778346776962,0.014695056714117527
1701815859816617700,4.21161767578125,-0.136227086186409,0.01949460618197918,-0.012968795374035835
1701815859826569700,4.22156982421875,-0.1453462690114975,0.03776948153972626,-0.05523369461297989
1701815859836522800,4.231522705078125,-0.14983662962913513,0.05512290820479393,-0.09456458687782288
1701815859846475800,4.241475830078125,-0.14414945244789124,0.07331176102161407,-0.11284185945987701
1701815859856428800,4.2514287109375,-0.13485687971115112,0.08059391379356384,-0.10648729652166367
1701815859866381800,4.2613818359375,-0.11803289502859116,0.08437240123748779,-0.08621904253959656
1701815859876334800,4.2713349609375,-0.10436555743217468,0.09695557504892349,-0.06778544187545776
1701815859886287600,4.28128759765625,-0.08889471739530563,0.10888466984033585,-0.05838554725050926
1701815859896240600,4.29124072265625,-0.07908602803945541,0.11894476413726807,-0.06169478967785835
1701815859906193000,4.30119287109375,-0.0706387460231781,0.11794660985469818,-0.07650276273488998
1701815859916146000,4.31114599609375,-0.061712365597486496,0.10962796211242676,-0.09049315005540848
1701815859926099000,4.321098876953125,-0.05040724575519562,0.10344383120536804,-0.10032127797603607
1701815859936052000,4.331052001953125,-0.03765416890382767,0.10010077059268951,-0.10049758106470108
1701815859946005000,4.3410048828125,-0.019228555262088776,0.10180225968360901,-0.09770499169826508
1701815859955958000,4.3509580078125,0.006056028418242931,0.10550005733966827,-0.09815799444913864
1701815859965910800,4.360910888671875,0.029688918963074684,0.10328537225723267,-0.10010263323783875
1701815859975863800,4.37086376953125,0.04210590943694115,0.10264009237289429,-0.10403957962989807
1701815859985815800,4.38081591796875,0.03731488063931465,0.10655839741230011,-0.10597037523984909
1701815859995768800,4.390768798828125,0.008964733220636845,0.12297758460044861,-0.10028506070375443
1701815860005721900,4.400721923828125,-0.031190410256385803,0.1566292941570282,-0.08549679070711136
1701815860015675000,4.4106748046875,-0.09123110771179199,0.20101432502269745,-0.0592486746609211
1701815860025628000,4.4206279296875,-0.16115880012512207,0.2479408234357834,-0.034394990652799606
1701815860035581000,4.430580810546875,-0.22631914913654327,0.2864706516265869,-0.014724884182214737
1701815860045534000,4.440533935546875,-0.28795483708381653,0.30544567108154297,0.017769675701856613
1701815860055486700,4.45048681640625,-0.3167305588722229,0.3117634952068329,0.045223936438560486
1701815860065438700,4.460438720703125,-0.3086622357368469,0.29096099734306335,0.0560813769698143
1701815860075391700,4.470391845703125,-0.2831880450248718,0.2562677264213562,0.05348160117864609
1701815860085344500,4.480344482421875,-0.24382571876049042,0.21184301376342773,0.04270085692405701
1701815860095297500,4.490297607421875,-0.18766842782497406,0.1710985153913498,0.032401081174612045
1701815860105250600,4.50025048828125,-0.12758326530456543,0.13546700775623322,0.019779829308390617
1701815860115203600,4.51020361328125,-0.07422176748514175,0.09710764139890671,0.0016072177095338702
1701815860125156600,4.520156494140625,-0.022175876423716545,0.057727210223674774,-0.028484106063842773
1701815860135109400,4.530109375,0.01780269853770733,0.023554328829050064,-0.05595248192548752
1701815860145061400,4.540061279296875,0.0415293350815773,0.0017449031583964825,-0.07263718545436859
1701815860155014400,4.550014404296875,0.05336868390440941,-0.005762547720223665,-0.07671049237251282
1701815860164967400,4.559967529296875,0.059058260172605515,-0.0007970841252245009,-0.0676051452755928
1701815860174920400,4.56992041015625,0.05632825195789337,0.004009655211120844,-0.04602235183119774
1701815860184873500,4.57987353515625,0.051600344479084015,0.004581968765705824,-0.016444221138954163
1701815860194826500,4.589826416015625,0.052383046597242355,0.007675496395677328,0.0051534827798604965
1701815860204779500,4.599779541015625,0.0485994927585125,0.012958409264683723,0.008376174606382847
1701815860214732500,4.609732666015625,0.04435494914650917,0.009410013444721699,-0.00039308256236836314
1701815860224684500,4.6196845703125,0.04032638296484947,0.004102333448827267,-0.01720188930630684
1701815860234637600,4.629637451171875,0.037171870470047,-0.003878627670928836,-0.034570492804050446
1701815860244590600,4.639590576171875,0.0402427613735199,-0.009583118371665478,-0.047213051468133926
1701815860254543600,4.649543701171875,0.04290938377380371,-0.009237173944711685,-0.053645383566617966
1701815860264496600,4.65949658203125,0.04441406950354576,-0.009094428271055222,-0.05210740864276886
1701815860274449700,4.66944970703125,0.04851081222295761,-0.005872802808880806,-0.04735419899225235
1701815860284402700,4.679402587890625,0.05228770524263382,0.0025632926262915134,-0.047209590673446655
1701815860294355700,4.689355712890625,0.05421796441078186,0.006202502176165581,-0.049142513424158096
1701815860304308700,4.699308837890625,0.057248108088970184,0.002251702593639493,-0.06063351780176163
1701815860314260500,4.709260498046875,0.05698205903172493,-0.0022085595410317183,-0.06813830882310867
1701815860324213500,4.719213623046875,0.053584665060043335,-0.005410211626440287,-0.07412003725767136
1701815860334166500,4.72916650390625,0.04907806217670441,-0.007636880502104759,-0.07323826104402542
1701815860344119600,4.73911962890625,0.041802842170000076,-0.007577492389827967,-0.07194290310144424
1701815860354072600,4.749072509765625,0.038355909287929535,-0.006414223462343216,-0.0689159482717514
1701815860364025600,4.759025634765625,0.037275198847055435,-0.012197810225188732,-0.06422212719917297
1701815860373978600,4.768978515625,0.03542989492416382,-0.028859611600637436,-0.0623461976647377
1701815860383930400,4.778930419921875,0.036194223910570145,-0.048765409737825394,-0.06565011292695999
1701815860393883400,4.78888330078125,0.035336684435606,-0.056774865835905075,-0.07243158668279648
1701815860403836400,4.79883642578125,0.03515851870179176,-0.0558004155755043,-0.08058672398328781
1701815860413789400,4.80878955078125,0.03789278864860535,-0.03732446953654289,-0.08062347024679184
1701815860423742500,4.818742431640625,0.03958256170153618,-0.01350755337625742,-0.06848078966140747
1701815860433695500,4.828695556640625,0.04391366243362427,0.010156763717532158,-0.05717433989048004
1701815860443648500,4.8386484375,0.04965037852525711,0.02684546262025833,-0.04531075432896614
1701815860453601500,4.8486015625,0.05337773635983467,0.03473880514502525,-0.03410524129867554
1701815860463554600,4.858554443359375,0.05450239032506943,0.03359684348106384,-0.024583639577031136
1701815860473506600,4.868506591796875,0.04954411834478378,0.02383076399564743,-0.02352822944521904
1701815860483459600,4.87845947265625,0.04327636584639549,0.013600231148302555,-0.029983730986714363
1701815860493412600,4.88841259765625,0.04277089983224869,-0.008701878599822521,-0.035417646169662476
1701815860503365600,4.89836572265625,0.0450604185461998,-0.04002438113093376,-0.03123541735112667
1701815860513318700,4.908318603515625,0.05029379576444626,-0.06767411530017853,-0.0325654000043869
1701815860523271700,4.918271728515625,0.053464289754629135,-0.07967352122068405,-0.03370310366153717
1701815860533224700,4.928224609375,0.05446803569793701,-0.07967352122068405,-0.034513767808675766
1701815860543176700,4.9381767578125,0.057788729667663574,-0.07570115476846695,-0.02990756556391716
1701815860553129500,4.94812939453125,0.05836077779531479,-0.06720326840877533,-0.020238958299160004
1701815860563082500,4.95808251953125,0.05510373041033745,-0.05789818614721298,-0.013498764485120773
1701815860573035500,4.968035400390625,0.05193164199590683,-0.04548173025250435,-0.016771523281931877
1701815860582988500,4.977988525390625,0.04807485267519951,-0.03911597654223442,-0.01546284556388855
1701815860592941600,4.987941650390625,0.042215097695589066,-0.03880252316594124,-0.015139804221689701
1701815860602894600,4.99789453125,0.03875565156340599,-0.036163330078125,-0.012476643547415733
1701815860612847600,5.00784765625,0.029592247679829597,-0.035049863159656525,-0.013744574040174484
1701815860622800600,5.017800537109375,0.024716798216104507,-0.038773227483034134,-0.013383716344833374
1701815860632752600,5.027752685546875,0.02009781077504158,-0.04165050759911537,-0.012122709304094315
1701815860642705400,5.037705322265625,0.021574534475803375,-0.045338984578847885,-0.007617439609020948
1701815860652658400,5.047658447265625,0.02648087590932846,-0.0435088612139225,-0.0048799761570990086
1701815860662611500,5.057611572265625,0.02827717736363411,-0.03620674088597298,-0.005985986907035112
1701815860672564500,5.067564453125,0.03297526016831398,-0.030364563688635826,-0.008680307306349277
1701815860682517500,5.077517578125,0.031021831557154655,-0.023607058450579643,-0.011261442676186562
1701815860692470500,5.087470458984375,0.027228424325585365,-0.023564182221889496,-0.00751970149576664
1701815860702423600,5.097423583984375,0.02316524088382721,-0.022184398025274277,-0.010438792407512665
1701815860712375600,5.10737548828125,0.021134313195943832,-0.018159562721848488,-0.014521950855851173
1701815860722328600,5.11732861328125,0.022236064076423645,-0.015591209754347801,-0.019087940454483032
1701815860732281300,5.12728125,0.025411084294319153,-0.007041397970169783,-0.026818031445145607
1701815860742234400,5.137234375,0.02628832869231701,0.0043982104398310184,-0.03422055393457413
1701815860752187400,5.1471875,0.026335200294852257,0.014361894689500332,-0.04261430725455284
1701815860762140400,5.157140380859375,0.024989506229758263,0.01805543340742588,-0.043305929750204086
1701815860772093400,5.167093505859375,0.025171132758259773,0.012312592938542366,-0.03455451503396034
1701815860782046500,5.17704638671875,0.023360183462500572,0.0027984497137367725,-0.017469804733991623
1701815860791999500,5.18699951171875,0.020540162920951843,-0.003745736088603735,-0.0054906392470002174
1701815860801951700,5.19695166015625,0.014096643775701523,-0.008174573071300983,0.0012932310346513987
1701815860811904500,5.206904541015625,0.010148241184651852,-0.0021920478902757168,-0.0019097528420388699
1701815860821857500,5.216857421875,0.006728742737323046,0.008593754842877388,-0.01088700257241726
1701815860831810600,5.226810546875,0.008105064742267132,0.017527861520648003,-0.0158319603651762
1701815860841763600,5.236763671875,0.010900318622589111,0.0196679774671793,-0.018816031515598297
1701815860851716600,5.246716552734375,0.01859472319483757,0.012724583968520164,-0.018571021035313606
1701815860861669600,5.256669677734375,0.02641136758029461,-0.0019976370967924595,-0.018326543271541595
1701815860871622700,5.26662255859375,0.032762475311756134,-0.015262309461832047,-0.013938185758888721
1701815860881574700,5.27657470703125,0.03473134711384773,-0.026093386113643646,-0.011236941441893578
1701815860891527700,5.286527587890625,0.03341441601514816,-0.02682815119624138,-0.011784487403929234
1701815860901480400,5.29648046875,0.02791605331003666,-0.018603777512907982,-0.009796171449124813
1701815860911433500,5.30643359375,0.025678198784589767,-0.00788801722228527,-0.010647584684193134
1701815860921386500,5.316386474609375,0.026336265727877617,0.005661880597472191,-0.00691889226436615
1701815860931339500,5.326339599609375,0.02311011217534542,0.009719738736748695,-0.001642637769691646
1701815860941292500,5.33629248046875,0.0198645181953907,0.0046576024033129215,-0.00042024682625196874
1701815860951245600,5.34624560546875,0.017975006252527237,0.001639441936276853,-0.001597363967448473
1701815860961197600,5.356197509765625,0.0168538149446249,0.0018852517241612077,-0.0068030450493097305
1701815860971150600,5.366150634765625,0.013739514164626598,-0.006671485025435686,-0.008956743404269218
1701815860981103600,5.376103515625,0.01016821525990963,-0.014384797774255276,-0.014426076784729958
1701815860991056400,5.386056396484375,0.01227397657930851,-0.018065819516777992,-0.018972625955939293
1701815861001009400,5.396009521484375,0.013201023451983929,-0.02014841139316559,-0.017347831279039383
1701815861010962400,5.40596240234375,0.011217501014471054,-0.01943148858845234,-0.014917963184416294
1701815861020915500,5.41591552734375,0.006996923126280308,-0.021291440352797508,-0.011033742688596249
1701815861030868500,5.425868408203125,-0.002778742229565978,-0.017842913046479225,-0.004460262134671211
1701815861040821500,5.435821533203125,-0.002255431143566966,-0.0011709919199347496,-0.009826797991991043
1701815861050773500,5.4457734375,0.011216701939702034,0.002895122393965721,-0.032219190150499344
1701815861060726500,5.4557265625,0.0284111350774765,0.007230216171592474,-0.06668315827846527
1701815861070679600,5.465679443359375,0.05859833210706711,0.011447065509855747,-0.09126333147287369
1701815861080632600,5.475632568359375,0.08078645914793015,0.014591192826628685,-0.10431016236543655
1701815861090585300,5.48558544921875,0.09742535650730133,0.01389717310667038,-0.11635670065879822
1701815861100538400,5.495538330078125,0.11175555735826492,0.02425260841846466,-0.12076263874769211
1701815861110491400,5.505491455078125,0.11675538122653961,0.03147696703672409,-0.12574061751365662
1701815861120444200,5.515444091796875,0.11146634072065353,0.036676786839962006,-0.13271543383598328
1701815861130396200,5.525396240234375,0.10774696618318558,0.04963439702987671,-0.14239150285720825
1701815861140349200,5.53534912109375,0.10608275979757309,0.05573330447077751,-0.14883768558502197
1701815861150302200,5.54530224609375,0.1000717356801033,0.06578700244426727,-0.14751967787742615
1701815861160255200,5.555255126953125,0.08785395324230194,0.06588421016931534,-0.13325180113315582
1701815861170208300,5.565208251953125,0.06852926313877106,0.06053072214126587,-0.117670439183712
1701815861180161300,5.575161376953125,0.052683718502521515,0.0644407719373703,-0.10336979478597641
1701815861190114300,5.5851142578125,0.04114530608057976,0.06925656646490097,-0.0848080962896347
1701815861200067300,5.5950673828125,0.02767450548708439,0.07372242212295532,-0.07418555021286011
1701815861210020000,5.60502001953125,0.030588269233703613,0.07408541440963745,-0.07185075432062149
1701815861219972000,5.61497216796875,0.03773006796836853,0.07238684594631195,-0.0837755873799324
1701815861229925000,5.624925048828125,0.047501470893621445,0.06372411549091339,-0.0960378497838974
1701815861239878100,5.634878173828125,0.060625530779361725,0.0562044158577919,-0.10879199206829071
1701815861249831200,5.6448310546875,0.06929704546928406,0.05278491601347923,-0.10529153794050217
1701815861259784200,5.6547841796875,0.06912980228662491,0.04384788125753403,-0.09784960001707077
1701815861269737200,5.6647373046875,0.06936416029930115,0.03633057698607445,-0.08676978200674057
1701815861279690200,5.674690185546875,0.06521149724721909,0.03524027764797211,-0.0735463872551918
1701815861289643300,5.684643310546875,0.061216484755277634,0.033238645642995834,-0.06216989830136299
1701815861299596000,5.694595947265625,0.05481771007180214,0.028004469349980354,-0.05615328252315521
1701815861309548000,5.704548095703125,0.05016037076711655,0.030436202883720398,-0.05146239325404167
1701815861319501000,5.7145009765625,0.046490270644426346,0.034031737595796585,-0.04682396352291107
1701815861329454000,5.7244541015625,0.04122732952237129,0.03395876660943031,-0.04085129126906395
1701815861339407000,5.734406982421875,0.04230564460158348,0.038295723497867584,-0.03483681008219719
1701815861349360000,5.744360107421875,0.04568200185894966,0.04288381710648537,-0.03428580239415169
1701815861359313200,5.754313232421875,0.04887033626437187,0.03644855320453644,-0.036927659064531326
1701815861369266200,5.76426611328125,0.048780590295791626,0.02714240550994873,-0.0406813845038414
1701815861379219000,5.774218994140625,0.04892626404762268,0.01305295154452324,-0.03976712003350258
1701815861389171200,5.784171142578125,0.04535656422376633,-0.0010942928493022919,-0.03737693279981613
1701815861399124200,5.794124267578125,0.036009665578603745,-0.013696903362870216,-0.03434519097208977
1701815861409077200,5.8040771484375,0.020240023732185364,-0.021454691886901855,-0.02967134304344654
1701815861419030300,5.8140302734375,0.01079698745161295,-0.018370218575000763,-0.02166321687400341
1701815861428983300,5.8239833984375,0.005302087403833866,-0.012771455571055412,-0.006652043666690588
1701815861438936300,5.833936279296875,0.002055960241705179,-0.013727263547480106,0.008503207005560398
1701815861448889300,5.843889404296875,0.001187237212434411,-0.01932229846715927,0.010391920804977417
1701815861458842400,5.85384228515625,0.003358512418344617,-0.029807696118950844,0.008815595880150795
1701815861468795100,5.863795166015625,-0.0021883193403482437,-0.04909297823905945,0.002445314545184374
1701815861478747100,5.8737470703125,-0.0016636766958981752,-0.062073223292827606,-0.0022210762836039066
1701815861488700200,5.8837001953125,-0.0028128307312726974,-0.0606020949780941,-0.0051902346312999725
1701815861498653200,5.893653076171875,-0.004025900736451149,-0.051356665790081024,-0.003242931328713894
1701815861508606200,5.903606201171875,-0.003622697899118066,-0.038127411156892776,0.0064927865751087666
1701815861518559200,5.913559326171875,-0.008549279533326626,-0.01660986989736557,0.014831677079200745
1701815861528512300,5.92351220703125,-0.015321964398026466,0.0016948357224464417,0.02118677832186222
1701815861538465300,5.93346533203125,-0.018520420417189598,0.009441172704100609,0.023127956315875053
1701815861548418300,5.943418212890625,-0.02069728821516037,0.00962919183075428,0.02189810760319233
1701815861558370000,5.9533701171875,-0.02021339163184166,0.006250439211726189,0.01798379421234131
1701815861568323000,5.963322998046875,-0.015984559431672096,-0.0010897654574364424,0.009156746789813042
1701815861578276000,5.973276123046875,-0.01242098305374384,-0.007524761371314526,0.0048799761570990086
1701815861588229000,5.98322900390625,-0.01062095258384943,-0.011565309949219227,0.005252286326140165
1701815861598182100,5.99318212890625,-0.01273070927709341,-0.01272591482847929,0.014553376473486423
1701815861608135200,6.00313525390625,-0.016699617728590965,-0.012841230258345604,0.022642994299530983
1701815861618088200,6.013088134765625,-0.02153938077390194,-0.00512738386169076,0.02756478264927864
1701815861628041200,6.023041259765625,-0.02124936133623123,-0.002924150787293911,0.027952006086707115
1701815861637994000,6.032993896484375,-0.017015468329191208,-0.00044794369023293257,0.022896261885762215
1701815861647946200,6.0429462890625,-0.012644688598811626,-0.002234658459201455,0.013823403976857662
1701815861657899300,6.052899169921875,-0.007709851488471031,-0.006743656471371651,0.004444549325853586
1701815861667852300,6.062852294921875,-0.005744970869272947,-0.009347694925963879,0.0014772554859519005
1701815861677805300,6.072805419921875,-0.007019559852778912,-0.00854608416557312,0.002347842790186405
1701815861687758000,6.082758056640625,-0.010880344547331333,-0.0037092508282512426,0.0035723643377423286
1701815861697711000,6.092711181640625,-0.012289423495531082,0.0004620584368240088,0.010611898265779018
1701815861707664100,6.1026640625,-0.016266588121652603,0.0056925066746771336,0.019270900636911392
1701815861717617200,6.1126171875,-0.01564234308898449,0.008619320578873158,0.023787355050444603
1701815861727570200,6.122570068359375,-0.0181739442050457,0.010496582835912704,0.023455791175365448
1701815861737522200,6.132522216796875,-0.0179987084120512,0.008741559460759163,0.01822933740913868
1701815861747475200,6.14247509765625,-0.018577678129076958,0.007695736363530159,0.013952300883829594
1701815861757428200,6.15242822265625,-0.01182017382234335,0.007121292874217033,0.009870474226772785
1701815861767381200,6.16238134765625,-0.008778311312198639,0.011305385269224644,0.003951332066208124
1701815861777334300,6.172334228515625,-0.0025747441686689854,0.015014369040727615,0.00025992453447543085
1701815861787287300,6.182287353515625,0.007044327445328236,0.018448781222105026,-0.0018631474813446403
1701815861797240300,6.192240234375,0.010175406001508236,0.015922507271170616,0.0027545075863599777
1701815861807193300,6.202193359375,0.011430553160607815,0.010966630652546883,0.0016506272368133068
1701815861817145000,6.21214501953125,0.007870174013078213,0.004290885291993618,0.002020007697865367
1701815861827098000,6.22209814453125,0.004791026934981346,0.0011347729014232755,-0.0007257114048115909
1701815861837051100,6.232051025390625,-0.0017757958266884089,-0.0023635553661733866,-0.004591023549437523
1701815861847004200,6.242004150390625,-0.0006428870838135481,-0.005308479070663452,-0.009200156666338444
1701815861856957200,6.251957275390625,-0.0002407497668173164,-0.002775280037894845,-0.008929046802222729
1701815861866910200,6.26191015625,0.0018442390719428658,-0.0005214469274505973,-0.0021859225817024708
1701815861876863200,6.27186328125,0.0005912217311561108,-0.00024767397553659976,-0.00016777914424892515
1701815861886816300,6.281816162109375,0.0029204224701970816,0.0036767602432519197,0.0021339908707886934
1701815861896769300,6.291769287109375,0.0028189560398459435,0.005530320107936859,0.00013981595111545175
1701815861906721000,6.301720947265625,0.0012610068079084158,0.004795554094016552,-0.002703907433897257
1701815861916674000,6.311674072265625,0.0027411917690187693,0.0027622305788099766,-0.006729808170348406
1701815861926627000,6.321626953125,0.0007637945818714797,0.0019518306944519281,-0.009044361300766468
1701815861936580000,6.331580078125,-0.0019678096286952496,0.0046269758604466915,-0.009875267744064331
1701815861946533000,6.341533203125,-0.0027212179265916348,0.00897032581269741,-0.014086524024605751
1701815861956486100,6.351486083984375,0.0003347593592479825,0.010878746397793293,-0.01805836334824562
1701815861966439200,6.361439208984375,0.003239735495299101,0.01290381420403719,-0.022008629515767097
1701815861976392200,6.37139208984375,0.0029917950741946697,0.008285626769065857,-0.020827516913414
1701815861986345000,6.381344970703125,0.00375985074788332,0.0016737966798245907,-0.019749203696846962
1701815861996297200,6.391297119140625,0.004589958116412163,-0.002064482541754842,-0.015518506057560444
1701815862006250200,6.401250244140625,-0.002572879893705249,-0.004175570327788591,-0.012090218253433704
1701815862016203300,6.411203369140625,-0.0044349622912704945,-0.0028551749419420958,-0.01073653344064951
1701815862026156300,6.42115625,-0.007288272958248854,0.0017454357584938407,-0.010015882551670074
1701815862036109300,6.431109375,-0.00863157119601965,0.008227037265896797,-0.008702944032847881
1701815862046062300,6.441062255859375,-0.005818474106490612,0.008823585696518421,-0.007523430045694113
1701815862056015400,6.451015380859375,0.0005073322099633515,0.0030213561840355396,-0.009644371457397938
1701815862065968400,6.460968505859375,0.007662447169423103,-0.003786748740822077,-0.014103834517300129
1701815862075920100,6.470920166015625,0.01357306633144617,-0.00833862368017435,-0.01828712783753872
1701815862085873400,6.480873291015625,0.015792544931173325,-0.007900533266365528,-0.02461666241288185
1701815862095826400,6.490826416015625,0.015751533210277557,-0.008193215355277061,-0.028375182300806046
1701815862105779500,6.500779541015625,0.014902782626450062,-0.006384129635989666,-0.03298404812812805
1701815862115732500,6.510732421875,0.011396997608244419,-0.007675762753933668,-0.03518674895167351
1701815862125685500,6.520685546875,0.01131071150302887,-0.005134840961545706,-0.03665841370820999
1701815862135638500,6.530638427734375,0.005527656991034746,-0.006739395204931498,-0.03555586189031601
1701815862145591600,6.540591552734375,0.0031039142049849033,-0.005431517027318478,-0.030706513673067093
1701815862155543300,6.550543212890625,0.003816842334344983,0.0035872780717909336,-0.02743082493543625
1701815862165496300,6.560496337890625,0.0037707698065787554,0.0091745899990201,-0.02792803756892681
1701815862175449300,6.570449462890625,0.008803078904747963,0.016156598925590515,-0.02388695627450943
1701815862185402400,6.58040234375,0.013623933307826519,0.016332101076841354,-0.0173193346709013
1701815862195355400,6.59035546875,0.01618882268667221,0.01347719319164753,-0.011188472621142864
1701815862205308400,6.600308349609375,0.01816621981561184,0.009970076382160187,-0.010031062178313732
1701815862215261400,6.610261474609375,0.017476461827754974,0.005930326879024506,-0.0068123661912977695
1701815862225214500,6.62021435546875,0.014245248399674892,0.0009499495499767363,-0.0032266860362142324
1701815862235167500,6.63016748046875,0.012349077500402927,-0.0012865731259807944,0.0064837317913770676
1701815862245119200,6.640119140625,0.010216685011982918,-0.003209375310689211,0.015691878274083138
1701815862255072300,6.650072265625,0.005073055624961853,-0.0030485205352306366,0.017603760585188866
1701815862265025300,6.660025390625,0.0041095237247645855,-0.003584881080314517,0.021275993436574936
1701815862274978300,6.669978271484375,0.002808836055919528,-0.010714429430663586,0.03434732183814049
1701815862284931300,6.679931396484375,0.0033510555513203144,-0.017424795776605606,0.042336538434028625
1701815862294884400,6.68988427734375,0.003940146882086992,-0.019886089488863945,0.045590922236442566
1701815862304837400,6.69983740234375,0.0033369408920407295,-0.022336730733513832,0.05064480006694794
1701815862314790400,6.709790283203125,0.0048980857245624065,-0.022845661267638206,0.053282395005226135
1701815862324742400,6.719742431640625,0.005293565336614847,-0.020801419392228127,0.05921485275030136
1701815862334695400,6.7296953125,0.005137237720191479,-0.020926054567098618,0.06492467224597931
1701815862344648400,6.7396484375,0.003439738880842924,-0.018796591088175774,0.06359308958053589
1701815862354601500,6.7496015625,0.002787264296784997,-0.014725416898727417,0.06198427453637123
1701815862364554500,6.759554443359375,0.006533000618219376,-0.013517140410840511,0.05901644751429558
1701815862374507500,6.769507568359375,0.007768174633383751,-0.014853514730930328,0.055098406970500946
1701815862384460500,6.77946044921875,0.011330419220030308,-0.015539810992777348,0.05354018881917
1701815862394413600,6.78941357421875,0.00980442762374878,-0.014455637894570827,0.05746835097670555
1701815862404366600,6.79936669921875,0.008843292482197285,-0.013610617257654667,0.05982498452067375
1701815862414318300,6.809318359375,0.007654457353055477,-0.012706474401056767,0.0634484812617302
1701815862424271400,6.819271240234375,0.007592672016471624,-0.016689231619238853,0.06310226768255234
1701815862434224400,6.829224365234375,0.01859578862786293,-0.019701533019542694,0.057315487414598465
1701815862444177400,6.839177490234375,0.029033515602350235,-0.02574664168059826,0.05234842374920845
1701815862454130400,6.84913037109375,0.03982331231236458,-0.027938157320022583,0.041914694011211395
1701815862464083500,6.85908349609375,0.04999658837914467,-0.025522669777274132,0.03118055686354637
1701815862474036500,6.869036376953125,0.054905060678720474,-0.018159030005335808,0.020501013845205307
1701815862483989500,6.878989501953125,0.056603092700242996,-0.011658520437777042,0.009358348324894905
1701815862493942500,6.888942626953125,0.0559556782245636,-0.00703793577849865,0.003998203668743372
1701815862503894300,6.898894287109375,0.05446963384747505,-0.0011699266033247113,-0.00035366779775358737
1701815862513847300,6.908847412109375,0.05763506516814232,0.0034208304714411497,-0.0046365633606910706
1701815862523800300,6.91880029296875,0.05674557015299797,0.0019856528379023075,-0.0059843892231583595
1701815862533753300,6.92875341796875,0.06022525578737259,0.001734250457957387,-0.011616175994277
1701815862543706400,6.938706298828125,0.06283222883939743,0.0023220102302730083,-0.01672118902206421
1701815862553659400,6.948659423828125,0.06382717937231064,-0.0008857673965394497,-0.02322809025645256
1701815862563612400,6.9586123046875,0.06416726857423782,-0.002290052128955722,-0.024466194212436676
1701815862573565400,6.9685654296875,0.06125190481543541,0.00007403588097076863,-0.027356257662177086
1701815862583518500,6.9785185546875,0.05800497904419899,0.006363889668136835,-0.03292492777109146
1701815862593470200,6.98847021484375,0.05283338576555252,0.010958641767501831,-0.036326583474874496
1701815862603423200,6.99842333984375,0.04555390402674675,0.013577860780060291,-0.03506637364625931
1701815862613376300,7.008376220703125,0.039929572492837906,0.015662848949432373,-0.0344325415790081
1701815862623329300,7.018329345703125,0.038176946341991425,0.017826400697231293,-0.03302665799856186
1701815862633282300,7.0282822265625,0.03350602835416794,0.020079435780644417,-0.03290335461497307
1701815862643235300,7.0382353515625,0.029383720830082893,0.026804715394973755,-0.032890040427446365
1701815862653188400,7.048188232421875,0.027307521551847458,0.025897111743688583,-0.03212864324450493
1701815862663141400,7.058141357421875,0.02630404196679592,0.02016252651810646,-0.0263032428920269
1701815862673093400,7.06809326171875,0.02053057588636875,0.014188789762556553,-0.017654893919825554
1701815862683046400,7.07804638671875,0.011893144808709621,0.00885048322379589,-0.011552260257303715
1701815862692999400,7.08799951171875,0.0005906891310587525,0.00038482676609419286,-0.005321794655174017
1701815862702952400,7.097952392578125,-0.006412093061953783,-0.009177252650260925,0.0010165285784751177
1701815862712905500,7.107905517578125,-0.010059026069939137,-0.01149739883840084,0.004126834217458963
1701815862722858500,7.1178583984375,-0.016233565285801888,-0.006992661859840155,0.001955026527866721
1701815862732811500,7.1278115234375,-0.01665913686156273,0.0015568839153274894,-0.0005217132274992764
1701815862742764500,7.1377646484375,-0.01588255912065506,0.0073290192522108555,0.002130528911948204
1701815862752717600,7.147717529296875,-0.017234381288290024,0.012686500325798988,0.0038336203433573246
1701815862762669300,7.15766943359375,-0.018641594797372818,0.014794126152992249,0.002709500025957823
1701815862772622300,7.167622314453125,-0.02063417248427868,0.019156916067004204,0.003947603516280651
1701815862782575400,7.177575439453125,-0.02093351073563099,0.01930871605873108,0.0006154565489850938
1701815862792528400,7.1875283203125,-0.017042366787791252,0.018683671951293945,-0.0035896748304367065
1701815862802481400,7.1974814453125,-0.009239571169018745,0.017901768907904625,-0.006594519596546888
1701815862812434400,7.207434326171875,-0.00016831177345011383,0.02136094868183136,-0.014517157338559628
1701815862822387500,7.217387451171875,0.008146343752741814,0.02581987902522087,-0.01613129861652851
1701815862832340500,7.227340576171875,0.015445268712937832,0.03159840777516365,-0.020850419998168945
1701815862842292200,7.237292236328125,0.023063506931066513,0.03564641252160072,-0.027103789150714874
1701815862852245200,7.247245361328125,0.027366910129785538,0.03303411602973938,-0.02845427766442299
1701815862862198300,7.2571982421875,0.028145350515842438,0.027720578014850616,-0.02828303724527359
1701815862872151300,7.2671513671875,0.024285897612571716,0.013742710463702679,-0.025373533368110657
1701815862882104300,7.277104248046875,0.017007213085889816,0.0024892566725611687,-0.022103970870375633
1701815862892057300,7.287057373046875,0.011360245756804943,-0.0043862261809408665,-0.020893830806016922
1701815862902010400,7.29701025390625,0.005788114387542009,-0.00785499345511198,-0.022288527339696884
1701815862911963400,7.30696337890625,0.0043651871383190155,-0.004632036201655865,-0.024833977222442627
1701815862921916400,7.31691650390625,0.006956176832318306,0.003959587775170803,-0.02787051349878311
1701815862931868400,7.326868408203125,0.01498054713010788,0.013303554616868496,-0.026992468163371086
1701815862941821400,7.336821533203125,0.02389521338045597,0.0172042865306139,-0.02425793558359146
1701815862951774500,7.3467744140625,0.030523287132382393,0.02160462737083435,-0.023514114320278168
1701815862961727500,7.3567275390625,0.03910559043288231,0.022714633494615555,-0.025546904653310776
1701815862971680500,7.366680419921875,0.04108698293566704,0.020063722506165504,-0.030460970476269722
1701815862981633500,7.376633544921875,0.03344424441456795,0.014349112287163734,-0.025682460516691208
1701815862991586600,7.386586669921875,0.022338328883051872,0.007498662453144789,-0.01569746993482113
1701815863001539600,7.39653955078125,0.012888900935649872,-0.001996039180085063,-0.0089391665533185
1701815863011491600,7.40649169921875,0.014899853616952896,-0.012617258355021477,-0.00902518630027771
1701815863021444400,7.4164443359375,0.02141847275197506,-0.02034122496843338,-0.010064352303743362
1701815863031397400,7.4263974609375,0.02474103309214115,-0.013406353071331978,-0.01458719838410616
1701815863041350400,7.436350341796875,0.02015773206949234,-0.0013907026732340455,-0.016686301678419113
1701815863051303400,7.446303466796875,0.014487329870462418,0.005465338937938213,-0.013109143823385239
1701815863061256400,7.45625634765625,0.009454221464693546,0.0111607750877738,-0.004524444229900837
1701815863071209500,7.46620947265625,0.009689644910395145,0.012160259298980236,0.0036693033762276173
1701815863081162500,7.47616259765625,0.012205533683300018,0.00694951880723238,-0.000672181835398078
1701815863091114800,7.48611474609375,0.02076147124171257,0.004370247479528189,-0.008081362582743168
1701815863101066800,7.496066650390625,0.025612153112888336,-0.000264718197286129,-0.013946175575256348
1701815863111019800,7.506019775390625,0.022786539047956467,-0.0034562505315989256,-0.016977651044726372
1701815863120972800,7.515972900390625,0.016931844875216484,-0.00529569573700428,-0.01318397931754589
1701815863130925800,7.52592578125,0.009207080118358135,-0.004307929426431656,-0.007592672016471624
1701815863140878800,7.53587890625,0.003358246060088277,-0.0002884203568100929,-0.005382515024393797
1701815863150831900,7.545831787109375,0.000556334329303354,0.006814230233430862,-0.00868909526616335
1701815863160784600,7.55578466796875,0.0016764599131420255,0.012997557409107685,-0.012359464541077614
1701815863170737700,7.565737548828125,0.00860334187746048,0.017124924808740616,-0.016216520220041275
1701815863180690700,7.575690673828125,0.013980796560645103,0.019878366962075233,-0.022943664342164993
1701815863190643000,7.585642822265625,0.01944560371339321,0.022759107872843742,-0.02786811627447605
1701815863200596000,7.595595947265625,0.020202472805976868,0.021744176745414734,-0.02943085879087448
1701815863210549000,7.605549072265625,0.014493987895548344,0.022829947993159294,-0.02425500564277172
1701815863220502000,7.615501953125,0.0016980315558612347,0.023334616795182228,-0.021870944648981094
1701815863230455000,7.625455078125,-0.00917405728250742,0.026427611708641052,-0.02112073078751564
1701815863240408000,7.635407958984375,-0.011181281879544258,0.028565065935254097,-0.0203902255743742
1701815863250360800,7.64536083984375,-0.006296511739492416,0.02467871457338333,-0.021524200215935707
1701815863260313900,7.65531396484375,0.003070358419790864,0.017426393926143646,-0.02907293103635311
1701815863270265900,7.665265869140625,0.010348510928452015,0.012543754652142525,-0.032461270689964294
1701815863280219000,7.675218994140625,0.009677660651504993,0.010869425721466541,-0.03188309818506241
1701815863290172000,7.685171875,0.008322644978761673,0.01438186876475811,-0.031866319477558136
1701815863300125000,7.695125,0.003953462466597557,0.016158996149897575,-0.026065688580274582
1701815863310078000,7.705077880859375,0.0038629150949418545,0.011726164259016514,-0.020289292559027672
1701815863320031000,7.715031005859375,0.005534847732633352,0.008011853322386742,-0.014572817832231522
1701815863329984000,7.72498388671875,0.004394215997308493,0.0008327704854309559,-0.013001020066440105
1701815863339936800,7.734936767578125,0.005684783682227135,-0.003674363251775503,-0.01805543340742588
1701815863349889800,7.744889892578125,0.010211625136435032,-0.004308728501200676,-0.023780163377523422
1701815863359841800,7.754841796875,0.013814615085721016,-0.004172108136117458,-0.023485617712140083
1701815863369794800,7.764794921875,0.017018930986523628,0.0021110877860337496,-0.020179569721221924
1701815863379747800,7.774747802734375,0.019306320697069168,0.013007677160203457,-0.014484666287899017
1701815863389700900,7.784700927734375,0.01853613369166851,0.023843280971050262,-0.015365906991064548
1701815863399654000,7.79465380859375,0.016336629167199135,0.028986910358071327,-0.01739417016506195
1701815863409607000,7.80460693359375,0.018189921975135803,0.02515009418129921,-0.016105733811855316
1701815863419559700,7.8145595703125,0.014332333579659462,0.013202354311943054,-0.008135423995554447
1701815863429512700,7.8245126953125,0.009820672683417797,-0.0013843111228197813,0.002889263443648815
1701815863439465700,7.8344658203125,0.004319380968809128,-0.011595137417316437,0.008807872422039509
1701815863449417700,7.844417724609375,-0.004327636677771807,-0.015935024246573448,0.009431318379938602
1701815863459370800,7.854370849609375,-0.012686766684055328,-0.015275359153747559,0.009670470841228962
1701815863469323800,7.86432373046875,-0.014298245310783386,-0.014249775558710098,0.011808189563453197
1701815863479276800,7.87427685546875,-0.013770673424005508,-0.01594860665500164,0.010359696112573147
1701815863489229800,7.884229736328125,-0.012655607424676418,-0.014883874915540218,0.013685451820492744
1701815863499182800,7.894182861328125,-0.012561864219605923,-0.015915051102638245,0.012504340149462223
1701815863509135600,7.904135498046875,-0.013205284252762794,-0.01738910935819149,0.01242151577025652
1701815863519088600,7.914088623046875,-0.013610883615911007,-0.016325710341334343,0.005093029234558344
1701815863529041700,7.924041748046875,-0.016588829457759857,-0.007966047152876854,-0.008853146806359291
1701815863538994000,7.933993896484375,-0.016807742416858673,0.0067572384141385555,-0.02352157048881054
1701815863548947000,7.943947021484375,-0.017476461827754974,0.022709839046001434,-0.03244529291987419
1701815863558900000,7.95389990234375,-0.017979266121983528,0.035835497081279755,-0.025909893214702606
1701815863568853000,7.96385302734375,-0.019348131492733955,0.04332084208726883,-0.011024953797459602
1701815863578806000,7.973805908203125,-0.023917850106954575,0.04713129252195358,0.0038511971943080425
1701815863588759000,7.983759033203125,-0.024046214297413826,0.043359991163015366,0.00806458480656147
1701815863598711800,7.9937119140625,-0.02383236214518547,0.037521276623010635,-0.00047084689140319824
1701815863608664800,8.003664794921875,-0.018512964248657227,0.02888304740190506,-0.009634784422814846
1701815863618616800,8.013616943359375,-0.009457684122025967,0.019652264192700386,-0.021757492795586586
1701815863628569900,8.02356982421875,0.0004340952436905354,0.008526909165084362,-0.023978836834430695
1701815863638523000,8.03352294921875,0.007705323863774538,0.0006556702428497374,-0.02161128632724285
1701815863648476000,8.043475830078124,0.01122016366571188,-0.001657285145483911,-0.016047408804297447
1701815863658429000,8.053428955078125,0.016205335035920143,-0.0018495653057470918,-0.009336243383586407
1701815863668382000,8.0633818359375,0.015417305752635002,0.0033246902748942375,-0.008190551772713661
1701815863678335000,8.0733349609375,0.016560601070523262,0.010362093336880207,-0.011649198830127716
1701815863688287700,8.083287841796874,0.020896758884191513,0.018509767949581146,-0.015209845267236233
1701815863698240800,8.09324072265625,0.022875487804412842,0.02449042908847332,-0.018191520124673843
1701815863708192800,8.10319287109375,0.024456873536109924,0.028541097417473793,-0.014675348997116089
1701815863718145800,8.113145751953125,0.022372150793671608,0.02828996069729328,-0.013686517253518105
1701815863728098800,8.123098876953126,0.015668176114559174,0.024342624470591545,-0.01155705377459526
1701815863738051800,8.1330517578125,0.008371380157768726,0.017016800120472908,-0.009241169318556786
1701815863748004900,8.1430048828125,0.002644518855959177,0.003240001853555441,-0.005467736162245274
1701815863757958000,8.1529580078125,-0.003864246653392911,-0.004782504867762327,-0.0007491472060792148
1701815863767910700,8.16291064453125,-0.011502192355692387,-0.013119264505803585,0.009041964076459408
1701815863777863700,8.17286376953125,-0.02232261560857296,-0.01618482917547226,0.024107201024889946
1701815863787816000,8.18281591796875,-0.0334695428609848,-0.021136976778507233,0.03823180869221687
1701815863797768700,8.192768798828125,-0.042028676718473434,-0.02304779551923275,0.05200967192649841
1701815863807721700,8.2027216796875,-0.044079042971134186,-0.022494656965136528,0.045939527451992035
1701815863817674800,8.2126748046875,-0.040893372148275375,-0.018794726580381393,0.031201595440506935
1701815863827627800,8.222627685546875,-0.03349750488996506,-0.008807339705526829,0.017707623541355133
1701815863837580800,8.232580810546875,-0.028956551104784012,0.0008559399866499007,0.009271794930100441
1701815863847533800,8.242533935546875,-0.02105361968278885,0.005423527676612139,0.002148372121155262
1701815863857486800,8.25248681640625,-0.014813833869993687,0.008083758875727654,-0.0036312201991677284
1701815863867439900,8.26243994140625,-0.014394119381904602,0.010927482508122921,-0.0037915424909442663
1701815863877392000,8.272391845703124,-0.01625833287835121,0.010005762800574303,-0.00392816262319684
1701815863887345000,8.282344970703125,-0.016327574849128723,0.012831642292439938,-0.005705556366592646
1701815863897298000,8.2922978515625,-0.016815731301903725,0.015312643721699715,-0.007471232209354639
1701815863907251000,8.3022509765625,-0.016884174197912216,0.017529459670186043,-0.00899855513125658
1701815863917204000,8.312203857421874,-0.016506537795066833,0.021256020292639732,-0.010640127584338188
1701815863927157000,8.322156982421875,-0.01221725158393383,0.022717829793691635,-0.012945892289280891
1701815863937110000,8.332110107421874,-0.008717591874301434,0.02630777098238468,-0.015075089409947395
1701815863947062800,8.342062744140625,-0.00023036343918647617,0.027470506727695465,-0.02262435294687748
1701815863957015800,8.352015869140626,0.007060039788484573,0.02815733477473259,-0.03452575206756592
1701815863966967800,8.3619677734375,0.01420396938920021,0.026093652471899986,-0.04228593781590462
1701815863976920800,8.3719208984375,0.024541029706597328,0.023914387449622154,-0.041253961622714996
1701815863986873900,8.381873779296875,0.03368765488266945,0.022276010364294052,-0.03961319103837013
1701815863996827000,8.391826904296876,0.03988403454422951,0.02321903593838215,-0.037515152245759964
1701815864006780000,8.40177978515625,0.037578534334897995,0.0246113371104002,-0.034319888800382614
1701815864016733000,8.41173291015625,0.03389884531497955,0.02135935053229332,-0.030642863363027573
1701815864026686000,8.42168603515625,0.022157233208417892,0.013458018191158772,-0.027714185416698456
1701815864036638700,8.431638671875,0.019206983968615532,0.01242417935281992,-0.026079803705215454
1701815864046590700,8.4415908203125,0.023124760016798973,0.014992265030741692,-0.033723875880241394
1701815864056543700,8.451543701171875,0.03290202468633652,0.01924852840602398,-0.033316146582365036
1701815864066496800,8.461496826171874,0.04525216668844223,0.02081553265452385,-0.029799174517393112
1701815864076449800,8.47144970703125,0.050758518278598785,0.024036360904574394,-0.02274099923670292
1701815864086402800,8.48140283203125,0.05086398124694824,0.025201493874192238,-0.015548067167401314
1701815864096355800,8.49135595703125,0.04429902136325836,0.01679522544145584,-0.005403819959610701
1701815864106308900,8.501308837890624,0.04215916991233826,0.004267449490725994,-0.003186472225934267
1701815864116262000,8.511261962890625,0.03898841142654419,-0.01002227421849966,0.0010780475568026304
1701815864126215000,8.52121484375,0.038847796618938446,-0.021561218425631523,0.001365402713418007
1701815864136167000,8.5311669921875,0.044246822595596313,-0.032164327800273895,-0.0016024239594116807
1701815864146120000,8.541119873046876,0.05018407478928566,-0.039213184267282486,-0.0015571502735838294
1701815864156073000,8.551072998046875,0.052806224673986435,-0.04003423452377319,-0.00851652305573225
1701815864166026000,8.56102587890625,0.05591785907745361,-0.03824911639094353,-0.010787134058773518
1701815864175979000,8.57097900390625,0.05215135216712952,-0.03900918364524841,-0.005599029827862978
1701815864185932000,8.58093212890625,0.04680905118584633,-0.03371455520391464,-0.0019049590919166803
1701815864195885000,8.590885009765625,0.036792367696762085,-0.029408222064375877,-0.0026788737159222364
1701815864205838000,8.600838134765626,0.026701917871832848,-0.026579413563013077,-0.007771370466798544
1701815864215790000,8.6107900390625,0.016947291791439056,-0.024774855002760887,-0.011035340838134289
1701815864225742800,8.620742919921875,0.0075995963998138905,-0.028714202344417572,-0.013525928370654583
1701815864235695900,8.63069580078125,0.0019558256026357412,-0.02636129967868328,-0.012569854035973549
1701815864245649000,8.64064892578125,-0.004898618441075087,-0.021289043128490448,-0.012395682744681835
1701815864255602000,8.650601806640625,-0.007396130822598934,-0.01557949185371399,-0.010363691486418247
1701815864265555000,8.660554931640625,-0.01273044291883707,-0.009899768978357315,-0.00917618814855814
1701815864275508000,8.670508056640625,-0.015186143107712269,-0.010546917095780373,-0.010788199491798878
1701815864285461000,8.6804609375,-0.02167067490518093,-0.012713397853076458,-0.013082512654364109
1701815864295414000,8.6904140625,-0.030040189623832703,-0.007849667221307755,-0.014035924337804317
1701815864305365800,8.70036572265625,-0.03736628219485283,-0.003294063964858651,-0.012924320995807648
1701815864315318800,8.71031884765625,-0.04381326213479042,0.0006775081856176257,-0.009995375759899616
1701815864325271800,8.720271728515625,-0.042393263429403305,0.0017411747248843312,-0.006713562645018101
1701815864335224800,8.730224853515624,-0.03990507125854492,0.0023031015880405903,-0.00830613262951374
1701815864345177900,8.740177734375,-0.03675615042448044,0.004249073565006256,-0.010581005364656448
1701815864355131000,8.750130859375,-0.037105023860931396,0.006841128226369619,-0.016952086240053177
1701815864365084000,8.760083984375,-0.039745014160871506,0.0027289411518722773,-0.019456522539258003
1701815864375037000,8.770036865234376,-0.04187234863638878,0.0009257147903554142,-0.016767261549830437
1701815864384990000,8.779989990234375,-0.048523325473070145,0.0011704593198373914,-0.012766394764184952
1701815864394941700,8.789941650390626,-0.055575110018253326,0.003620034782215953,-0.01251206360757351
1701815864404894700,8.799894775390625,-0.057673681527376175,0.009430252946913242,-0.018274877220392227
1701815864414847700,8.80984765625,-0.05987105518579483,0.01637418009340763,-0.02545875497162342
1701815864424800800,8.81980078125,-0.06015468388795853,0.026763437315821648,-0.031915854662656784
1701815864434753800,8.82975390625,-0.056955162435770035,0.03654629364609718,-0.04300365969538689
1701815864444706800,8.839706787109375,-0.05621666833758354,0.05247625708580017,-0.051661863923072815
1701815864454659800,8.849659912109376,-0.055445149540901184,0.06694334745407104,-0.05288558453321457
1701815864464612900,8.85961279296875,-0.05315349996089935,0.07619969546794891,-0.05235747992992401
1701815864474565000,8.869565185546875,-0.050519365817308426,0.07952971011400223,-0.048470064997673035
1701815864484518000,8.879517822265624,-0.05182697996497154,0.07727960497140884,-0.044375985860824585
1701815864494471000,8.889470947265625,-0.04922959581017494,0.07482390850782394,-0.039861660450696945
1701815864504424000,8.899423828125,-0.05148982256650925,0.07389739155769348,-0.04157274216413498
1701815864514377000,8.909376953125,-0.05371968820691109,0.06863684952259064,-0.0411146804690361
1701815864524330000,8.919330078125,-0.056299224495887756,0.06993993371725082,-0.03910345956683159
1701815864534283000,8.929282958984375,-0.056768208742141724,0.074456125497818,-0.032953955233097076
1701815864544236000,8.939236083984374,-0.05620734766125679,0.08118540048599243,-0.027538416907191277
1701815864554189000,8.94918896484375,-0.050808850675821304,0.08257343620061874,-0.02502519264817238
1701815864564141000,8.95914111328125,-0.04682529717683792,0.078406922519207,-0.01671852543950081
1701815864574093800,8.96909375,-0.042575422674417496,0.07665376365184784,-0.013886520639061928
1701815864584046800,8.979046875,-0.043900612741708755,0.07806284725666046,-0.014370949938893318
1701815864594000000,8.988999755859375,-0.04296877235174179,0.07957205921411514,-0.018327075988054276
1701815864603953000,8.998952880859376,-0.04513818398118019,0.0865844264626503,-0.024804947897791862
1701815864613906000,9.008906005859375,-0.044377051293849945,0.09512731432914734,-0.021132981404662132
1701815864623859000,9.01885888671875,-0.041068606078624725,0.10413705557584763,-0.009973538108170033
1701815864633812000,9.02881201171875,-0.03815137967467308,0.10814564675092697,-0.00210682675242424
1701815864643764000,9.038763916015625,-0.0356123223900795,0.10753791034221649,0.004987834487110376
1701815864653716700,9.048716796875,-0.03220134600996971,0.10470670461654663,0.00926487147808075
1701815864663669800,9.058669677734375,-0.02508458122611046,0.0961315929889679,0.005309810396283865
1701815864673622800,9.068622802734374,-0.023932496085762978,0.08966463804244995,0.00247540813870728
1701815864683575800,9.078575927734375,-0.015795741230249405,0.08611997216939926,-0.001130511867813766
1701815864693528800,9.08852880859375,-0.00823928788304329,0.08006926625967026,-0.0024021712597459555
1701815864703481900,9.09848193359375,-0.0003427488263696432,0.06904138624668121,0.001440237509086728
1701815864713435000,9.108434814453124,0.008052600547671318,0.05242432653903961,0.009582320228219032
1701815864723388000,9.118387939453125,0.013346698135137558,0.03301467373967171,0.014540326781570911
1701815864733340000,9.12833984375,0.01841416023671627,0.015990683808922768,0.014905446209013462
1701815864743293000,9.13829296875,0.025779133662581444,0.0003051982494071126,0.010608701966702938
1701815864753246000,9.148245849609374,0.03424878418445587,-0.015989884734153748,0.003793406533077359
1701815864763199000,9.158198974609375,0.04578719660639763,-0.022708773612976074,-0.006193713750690222
1701815864773152000,9.168152099609374,0.05896291881799698,-0.024591894820332527,-0.019693277776241302
1701815864783105000,9.17810498046875,0.07220974564552307,-0.02142992429435253,-0.03247351944446564
1701815864793057800,9.188057861328126,0.08486881852149963,-0.018822424113750458,-0.0474356934428215
1701815864803010800,9.1980107421875,0.09404394030570984,-0.015076154842972755,-0.06559418886899948
1701815864812963800,9.2079638671875,0.10007839649915695,-0.013642309233546257,-0.07173331081867218
1701815864822916000,9.217916015625,0.0995074138045311,-0.01314935740083456,-0.0747528001666069
1701815864832868900,9.227868896484376,0.09782110154628754,-0.0068120998330414295,-0.07532857358455658
1701815864842822000,9.23782177734375,0.09363354742527008,-0.009128517471253872,-0.07729531824588776
1701815864852775000,9.24777490234375,0.09083350002765656,-0.00692155584692955,-0.0754135325551033
1701815864862728000,9.25772802734375,0.091070257127285,-0.01619814522564411,-0.07277247309684753
1701815864872681000,9.267680908203126,0.09270916134119034,-0.02799195423722267,-0.07400471717119217
1701815864882634000,9.277634033203125,0.09699791669845581,-0.03894420340657234,-0.07847616821527481
1701815864892587000,9.2875869140625,0.09807170182466507,-0.049360889941453934,-0.07999975979328156
1701815864902539000,9.2975390625,0.10031116008758545,-0.05919647961854935,-0.08599959313869476
1701815864912492000,9.307491943359375,0.10082940757274628,-0.06297949701547623,-0.09079435467720032
1701815864922444800,9.31744482421875,0.09909116476774216,-0.06545277684926987,-0.09412063658237457
1701815864932397800,9.327397705078125,0.09608498960733414,-0.06915217638015747,-0.09158823639154434
1701815864942350800,9.337350830078124,0.09232433885335922,-0.0759458988904953,-0.08476042747497559
1701815864952303900,9.347303955078125,0.08767525851726532,-0.07909801602363586,-0.08499052375555038
1701815864962257000,9.3572568359375,0.08433804661035538,-0.07883356511592865,-0.08770401775836945
1701815864972210000,9.3672099609375,0.08208208531141281,-0.0783051922917366,-0.08565471321344376
1701815864982163000,9.377162841796874,0.0785512700676918,-0.07268033176660538,-0.08031614124774933
1701815864992116000,9.387115966796875,0.07890094071626663,-0.07065925747156143,-0.06592655181884766
1701815865002067700,9.397067626953126,0.07517970353364944,-0.07288938760757446,-0.04800694063305855
1701815865012020700,9.407020751953125,0.06706691533327103,-0.07887963205575943,-0.028244687244296074
1701815865021973800,9.416973876953126,0.05638737604022026,-0.08332657814025879,-0.009573264978826046
1701815865031926800,9.4269267578125,0.04534723982214928,-0.07860692590475082,0.00012916330888401717
1701815865041879800,9.4368798828125,0.03357527032494545,-0.06850636005401611,0.0092923017218709
1701815865051832800,9.446832763671875,0.030774157494306564,-0.05685236304998398,0.014386662282049656
1701815865061785900,9.456785888671876,0.02959757298231125,-0.04242682084441185,0.00285011506639421
1701815865071739000,9.46673876953125,0.03642458841204643,-0.02804308570921421,-0.0234624482691288
1701815865081692000,9.47669189453125,0.0468793585896492,-0.017609886825084686,-0.04252695292234421
1701815865091644200,9.48664404296875,0.05386509746313095,-0.01489319559186697,-0.04304760321974754
1701815865101597200,9.49659716796875,0.05951259657740593,-0.015679094940423965,-0.03116031549870968
1701815865111550200,9.50655029296875,0.05808807164430618,-0.016568856313824654,-0.018259165808558464
1701815865121503200,9.516503173828125,0.05384272709488869,-0.014956045895814896,-0.008310660719871521
1701815865131456300,9.526456298828125,0.04352936893701553,-0.009104815311729908,-0.0027417242527008057
1701815865141409300,9.5364091796875,0.03413267061114311,-0.0017148094484582543,0.0038304245099425316
1701815865151362300,9.5463623046875,0.024404142051935196,0.002672215923666954,0.013513145968317986
1701815865161315300,9.5563154296875,0.020971594378352165,0.0022748722694814205,0.016213057562708855
1701815865171268400,9.566268310546874,0.022613434121012688,-0.011108843609690666,0.01625353842973709
1701815865181220000,9.57622021484375,0.028367992490530014,-0.025350097566843033,0.01606685109436512
1701815865191173000,9.586173095703124,0.029443375766277313,-0.03355476260185242,0.024210797622799873
1701815865201126100,9.596126220703125,0.02780446596443653,-0.03645814210176468,0.032223716378211975
1701815865211079200,9.6060791015625,0.022777484729886055,-0.032222919166088104,0.037219539284706116
1701815865221032200,9.6160322265625,0.019332418218255043,-0.024167388677597046,0.03814578801393509
1701815865230985200,9.625985107421876,0.01612677238881588,-0.017969146370887756,0.04261111095547676
1701815865240938200,9.635938232421875,0.01563595049083233,-0.013106747530400753,0.04477466270327568
1701815865250891300,9.645891357421876,0.020145747810602188,-0.012258796952664852,0.04400021582841873
1701815865260844300,9.65584423828125,0.02255803905427456,-0.014211426489055157,0.04030720889568329
1701815865270796000,9.665796142578126,0.020555874332785606,-0.021936457604169846,0.038479480892419815
1701815865280749000,9.6757490234375,0.02039049193263054,-0.031131554394960403,0.029525401070713997
1701815865290702000,9.6857021484375,0.01872335374355316,-0.026213495060801506,0.021463479846715927
1701815865300655000,9.695655029296875,0.01883014664053917,-0.026029203087091446,0.020652281120419502
1701815865310608100,9.705608154296876,0.015484684146940708,-0.021741248667240143,0.028389031067490578
1701815865320561200,9.71556103515625,0.0070765516720712185,-0.021643510088324547,0.03303038701415062
1701815865330514200,9.72551416015625,0.005573197267949581,-0.010392986238002777,0.03365836292505264
1701815865340467200,9.73546728515625,-0.0008862999966368079,0.00006924218905624002,0.03259282931685448
1701815865350420200,9.745420166015625,-0.002712695859372616,0.0035385421942919493,0.0344139002263546
1701815865360372000,9.7553720703125,0.0006527407676912844,0.009584183804690838,0.03136777505278587
1701815865370325000,9.765324951171875,0.0003046656202059239,0.008835835382342339,0.025134913623332977
1701815865380278000,9.775278076171874,-0.0011400992516428232,0.009211341850459576,0.023248864337801933
1701815865390231000,9.78523095703125,-0.0026410568971186876,0.012378105893731117,0.014096643775701523
1701815865400184000,9.79518408203125,-0.007024087477475405,0.011296330019831657,0.008302404545247555
1701815865410137000,9.80513720703125,-0.010120810940861702,0.013757623732089996,0.003084473079070449
1701815865420090000,9.815090087890624,-0.01606019213795662,0.020835507661104202,-0.0021789984311908484
1701815865430043100,9.825043212890625,-0.024215323850512505,0.02612214721739292,-0.006486927624791861
1701815865439996200,9.83499609375,-0.03172836825251579,0.034147851169109344,-0.0056712012737989426
1701815865449949200,9.84494921875,-0.03817188739776611,0.03940519690513611,0.0006708502769470215
1701815865459901200,9.854901123046876,-0.045474275946617126,0.0393974743783474,0.009584450162947178
1701815865469854200,9.864854248046875,-0.04851240664720535,0.0405556820333004,0.010994860902428627
1701815865479807200,9.87480712890625,-0.05294284224510193,0.04166169464588165,0.007126086391508579
1701815865489760300,9.88476025390625,-0.05751602351665497,0.040594831109046936,0.001989913871511817
1701815865499713300,9.89471337890625,-0.057326141744852066,0.045460425317287445,-0.0026959178503602743
1701815865509666300,9.904666259765625,-0.05501824617385864,0.052618738263845444,-0.0049135321751236916
1701815865519619300,9.914619384765626,-0.05237026512622833,0.053825147449970245,-0.005839246790856123
1701815865529572400,9.924572265625,-0.04502233490347862,0.05216972902417183,-0.001466336427256465
1701815865539525400,9.934525390625,-0.04062731936573982,0.047566987574100494,0.0025246767327189445
1701815865549477000,9.94447705078125,-0.03773113340139389,0.0392315573990345,0.003984355367720127
1701815865559430100,9.95443017578125,-0.039139412343502045,0.034378211945295334,0.00926167517900467
1701815865569383200,9.964383056640624,-0.03917589783668518,0.02684945799410343,0.013579724356532097
1701815865579336200,9.974336181640625,-0.03880172595381737,0.023251792415976524,0.016926253214478493
1701815865589289200,9.984289306640624,-0.037449102848768234,0.019842680543661118,0.020141754299402237
1701815865599242200,9.9942421875,-0.03386395797133446,0.01745462417602539,0.018982745707035065
1701815865609195300,10.0041953125,-0.027950141578912735,0.017351826652884483,0.016105201095342636
1701815865619148300,10.014148193359375,-0.02202034741640091,0.017250359058380127,0.00708800321444869
1701815865629101300,10.024101318359374,-0.010721353814005852,0.016620522364974022,0.003403519745916128
1701815865639053000,10.034052978515625,-0.002971288748085499,0.015673501417040825,-0.003947603516280651
1701815865649006000,10.044006103515626,0.004593420308083296,0.020126573741436005,-0.008534632623195648
1701815865658959000,10.053958984375,0.008393485099077225,0.023364711552858353,-0.012259862385690212
1701815865668912000,10.063912109375,0.014210627414286137,0.019817113876342773,-0.012986638583242893
1701815865678865200,10.073865234375,0.020395552739501,0.012717126868665218,-0.01781494915485382
1701815865688818200,10.083818115234376,0.02413809299468994,0.015391472727060318,-0.026867832988500595
1701815865698771200,10.093771240234375,0.024053404107689857,0.02533039078116417,-0.03259975463151932
1701815865708724200,10.10372412109375,0.024596422910690308,0.03242185711860657,-0.03587384521961212
1701815865718677200,10.11367724609375,0.024754082784056664,0.03976632282137871,-0.03916604444384575
1701815865728629000,10.12362890625,0.025550100952386856,0.044132839888334274,-0.04232135787606239
1701815865738582000,10.13358203125,0.029678532853722572,0.04487026855349541,-0.043471045792102814
1701815865748535000,10.14353515625,0.032826922833919525,0.04279140755534172,-0.04393123835325241
1701815865758488000,10.153488037109375,0.03943129628896713,0.047022104263305664,-0.054060306400060654
1701815865768441000,10.163441162109375,0.04488438367843628,0.047144610434770584,-0.0581437312066555
1701815865778394000,10.17339404296875,0.04526175558567047,0.03800756856799126,-0.06239600107073784
1701815865788347100,10.18334716796875,0.050392333418130875,0.028260933235287666,-0.06549059599637985
1701815865798300200,10.193300048828124,0.05004798620939255,0.021436583250761032,-0.0685977041721344
1701815865808253000,10.2032529296875,0.044619932770729065,0.02948944829404354,-0.062369368970394135
1701815865818205200,10.213205078125,0.03816602751612663,0.03389138728380203,-0.05583104118704796
1701815865828158200,10.223158203125,0.03700542077422142,0.03708851337432861,-0.057550109922885895
1701815865838111200,10.233111328125,0.03466050699353218,0.035408589988946915,-0.052385974675416946
1701815865848064300,10.243064208984375,0.036436304450035095,0.030711572617292404,-0.047981373965740204
1701815865858017300,10.253017333984374,0.03593509644269943,0.026575151830911636,-0.04788763076066971
1701815865867970300,10.26297021484375,0.03756095841526985,0.02148851379752159,-0.050041329115629196
1701815865877923300,10.27292333984375,0.0361819714307785,0.014533935114741325,-0.05029486119747162
1701815865887876400,10.28287646484375,0.03579714521765709,0.008974852971732616,-0.047029025852680206
1701815865897829000,10.2928291015625,0.03768080100417137,0.0010226538870483637,-0.0398201160132885
1701815865907781000,10.302781005859375,0.0391700379550457,-0.003242664970457554,-0.02900848165154457
1701815865917734100,10.312734130859376,0.03398299962282181,-0.0032716933637857437,-0.02014921046793461
1701815865927687200,10.322687255859375,0.026370353996753693,-0.004833104554563761,-0.012587963603436947
1701815865937640200,10.33264013671875,0.015910256654024124,-0.004458664450794458,-0.006324741058051586
1701815865947593200,10.34259326171875,0.007256048731505871,0.0016000272007659078,-0.0022186795249581337
1701815865957546200,10.352546142578126,0.00350418733432889,0.0044346959330141544,-0.0007507451227866113
1701815865967499300,10.362499267578125,0.003885552054271102,0.007056311704218388,-0.003691940102726221
1701815865977452300,10.372452392578126,0.007370830979198217,0.004525776021182537,-0.005941778887063265
1701815865987405000,10.382405029296875,0.006813431158661842,0.0006551376427523792,-0.006301038898527622
1701815865997357000,10.392357177734375,0.006603308022022247,-0.0031854070257395506,-0.00700757559388876
1701815866007310000,10.40231005859375,0.007680024020373821,-0.0016109461430460215,-0.008957009762525558
1701815866017263000,10.41226318359375,0.006923952605575323,-0.004038151353597641,-0.00782489962875843
1701815866027216100,10.422216064453124,0.009829993359744549,-0.0020567593164741993,-0.004822185728698969
1701815866037169200,10.432169189453125,0.012141617946326733,0.0007302387384697795,-0.003014432033523917
1701815866047122200,10.4421220703125,0.013309413567185402,0.005661614239215851,-0.005221926141530275
1701815866057075200,10.4520751953125,0.014608503319323063,0.01323963887989521,-0.009661149233579636
1701815866067028200,10.4620283203125,0.020014986395835876,0.018565163016319275,-0.018615495413541794
1701815866076981000,10.47198095703125,0.02743508666753769,0.017858093604445457,-0.030474286526441574
1701815866086934000,10.48193408203125,0.03683071956038475,0.03001861833035946,-0.03681180998682976
1701815866096886300,10.49188623046875,0.03293105214834213,0.028135763481259346,-0.03683897480368614
1701815866106839300,10.50183935546875,0.028073180466890335,0.021624069660902023,-0.024353010579943657
1701815866116792300,10.511792236328125,0.01727113127708435,0.008884305134415627,-0.0029198897536844015
1701815866126745000,10.5217451171875,0.003379018744453788,-0.0065441858023405075,0.022243253886699677
1701815866136698000,10.531697998046875,-0.008586830459535122,-0.015799470245838165,0.039204392582178116
1701815866146651100,10.541651123046876,-0.011929363943636417,-0.01906397193670273,0.040353283286094666
1701815866156604200,10.551604248046875,-0.010967163369059563,-0.016716929152607918,0.02798636071383953
1701815866166557200,10.56155712890625,-0.006025668233633041,-0.015984559431672096,0.008115450851619244
1701815866176510200,10.57151025390625,0.005873868241906166,-0.013471067883074284,-0.005026184022426605
1701815866186462200,10.581462158203125,0.018262093886733055,-0.0065013086423277855,-0.006419016979634762
1701815866196415200,10.591415283203125,0.028189826756715775,0.00012490226072259247,-0.0020117517560720444
1701815866206368000,10.601367919921875,0.036493830382823944,0.007954861968755722,0.002840793924406171
1701815866216321000,10.611321044921874,0.03876310959458351,0.011972506530582905,0.002671949565410614
1701815866226274000,10.621274169921875,0.03861823305487633,0.016626913100481033,-0.0038775624707341194
1701815866236227000,10.63122705078125,0.02630777098238468,0.02376684918999672,0.0022474415600299835
1701815866246180000,10.64118017578125,0.0014258564915508032,0.03955433517694473,0.03586319088935852
1701815866256133000,10.651133056640624,-0.040532778948545456,0.06788530945777893,0.10729023814201355
1701815866266086100,10.661086181640625,-0.08946783095598221,0.09310038387775421,0.2047100067138672
1701815866276038100,10.6710380859375,-0.12823626399040222,0.11850854009389877,0.2897772192955017
1701815866285991200,10.6809912109375,-0.1588735431432724,0.11521154642105103,0.33840706944465637
1701815866295944000,10.69094384765625,-0.17877960205078125,0.10676000267267227,0.35564491152763367
1701815866305897000,10.70089697265625,-0.1860678791999817,0.08620359748601913,0.3309323787689209
1701815866315850000,10.71085009765625,-0.18208032846450806,0.0566377118229866,0.2738339304924011
1701815866325803000,10.720802978515625,-0.16764332354068756,0.01197783276438713,0.19934771955013275
1701815866335756000,10.730756103515626,-0.1361895352602005,-0.03570020571351051,0.13141421973705292
1701815866345709000,10.740708984375,-0.09983525425195694,-0.0706760361790657,0.08279794454574585
1701815866355662000,10.750662109375,-0.07039560377597809,-0.08627789467573166,0.055146876722574234
1701815866365614000,10.760614013671875,-0.05089327320456505,-0.07082384079694748,0.038489602506160736
1701815866375567000,10.770567138671876,-0.04310059919953346,-0.041365016251802444,0.03302799165248871
1701815866385519900,10.780519775390625,-0.0400153249502182,-0.017721738666296005,0.035179026424884796
1701815866395473000,10.790472900390625,-0.04146621748805046,-0.007131945341825485,0.035291679203510284
1701815866405426000,10.800426025390625,-0.03906138241291046,-0.0075849490240216255,0.028979187831282616
1701815866415379000,10.81037890625,-0.0375489741563797,-0.014214355498552322,0.016450878232717514
1701815866425332000,10.82033203125,-0.032773394137620926,-0.017296165227890015,0.0000697748182574287
1701815866435285000,10.830284912109375,-0.028980785980820656,-0.017839983105659485,-0.016230102628469467
1701815866445237200,10.8402373046875,-0.022784940898418427,-0.016466325148940086,-0.03284556418657303
1701815866455190300,10.850190185546875,-0.015421832911670208,-0.012147476896643639,-0.04374801367521286
1701815866465143300,10.860143310546874,-0.00475454144179821,-0.004108192399144173,-0.052798766642808914
1701815866475096000,10.870095947265625,0.00672368286177516,0.008501342497766018,-0.06547194719314575
1701815866485049000,10.880049072265624,0.02069222927093506,0.020473582670092583,-0.07996567338705063
1701815866495002000,10.890002197265625,0.03184714540839195,0.02682841755449772,-0.08880922943353653
1701815866504955100,10.899955078125,0.040886446833610535,0.029216473922133446,-0.08684141933917999
1701815866514908200,10.909908203125,0.04776512458920479,0.025112543255090714,-0.07815525680780411
1701815866524861200,10.919861083984374,0.054237671196460724,0.02117506042122841,-0.07018254697322845
1701815866534814200,10.929814208984375,0.056778594851493835,0.017181916162371635,-0.06993380934000015
1701815866544766200,10.93976611328125,0.048589907586574554,0.015092133544385433,-0.06879238039255142
1701815866554719000,10.949718994140625,0.04113571718335152,0.011504056863486767,-0.06723230332136154
1701815866564672000,10.959672119140626,0.035903673619031906,0.006915430538356304,-0.06307004392147064
1701815866574625000,10.969625,0.028059331700205803,0.0009065400226972997,-0.05381369590759277
1701815866584578000,10.979578125,0.030434338375926018,-0.0021813951898366213,-0.04030827432870865
1701815866594531000,10.989531005859375,0.03687865659594536,-0.00253426400013268,-0.03481949865818024
1701815866604484000,10.999484130859376,0.042101114988327026,-0.0011667308863252401,-0.04031652957201004
1701815866614437000,11.00943701171875,0.04818430542945862,-0.001208009896799922,-0.047441016882658005
1701815866624390100,11.01939013671875,0.05337081477046013,-0.0019262643763795495,-0.05451437458395958
1701815866634342100,11.029342041015624,0.05663451552391052,-0.0026162895374000072,-0.055131696164608
1701815866644295000,11.039294921875,0.058220162987709045,-0.00541340745985508,-0.053585994988679886
1701815866654248000,11.049248046875,0.05983057618141174,-0.005852562841027975,-0.05110206454992294
1701815866664201000,11.059200927734375,0.05842842161655426,-0.007829426787793636,-0.047931838780641556
1701815866674154000,11.069154052734374,0.05303152650594711,-0.009534649550914764,-0.039095472544431686
1701815866684107000,11.07910693359375,0.04021826013922691,-0.008050736039876938,-0.027236947789788246
1701815866694060000,11.08906005859375,0.022901587188243866,-0.004345746245235205,-0.015292403288185596
1701815866704013000,11.099012939453125,0.012032960541546345,-0.0023212111555039883,-0.008052067831158638
1701815866713966000,11.108966064453124,0.009617207571864128,-0.0017725999932736158,-0.005626194179058075
1701815866723918000,11.11891796875,0.015682289376854897,-0.00549250328913331,-0.009301622398197651
1701815866733871000,11.12887109375,0.025486184284090996,-0.006395048461854458,-0.015323296189308167
1701815866743824100,11.13882421875,0.028508607298135757,-0.0033936661202460527,-0.025551965460181236
1701815866753777200,11.148777099609376,0.029558690264821053,-0.00005672533006872982,-0.029350964352488518
1701815866763730200,11.158730224609375,0.0259889904409647,0.001933987601660192,-0.03170067071914673
1701815866773683000,11.168682861328126,0.0220325980335474,0.007616107817739248,-0.0296724084764719
1701815866783636000,11.178635986328125,0.020083962008357048,0.0073199644684791565,-0.022529011592268944
1701815866793589000,11.188589111328126,0.019948674365878105,0.007701063062995672,-0.01955346204340458
1701815866803542000,11.1985419921875,0.02039528638124466,0.0089953588321805,-0.018632806837558746
1701815866813494000,11.208493896484375,0.021495969966053963,0.008804410696029663,-0.022303441539406776
1701815866823447000,11.218447021484375,0.01684955321252346,0.008761533536016941,-0.02418869361281395
1701815866833400000,11.228400146484375,0.012056396342813969,0.005387574899941683,-0.02069648914039135
1701815866843353000,11.23835302734375,0.011186341755092144,0.0019947076216340065,-0.01763358898460865
1701815866853306000,11.24830615234375,0.009094428271055222,-0.003486344125121832,-0.01798672415316105
1701815866863259100,11.258259033203124,0.007059507537633181,-0.010441722348332405,-0.022790001705288887
1701815866873212200,11.268212158203125,0.0021848573815077543,-0.009061938151717186,-0.025684325024485588
1701815866883165200,11.278165283203125,-0.00418435875326395,-0.004049869254231453,-0.024684308096766472
1701815866893118200,11.2881181640625,-0.01178981363773346,0.0009238505735993385,-0.015578427352011204
1701815866903070000,11.298070068359374,-0.014844193123281002,0.004542287439107895,-0.01008166279643774
1701815866913023000,11.30802294921875,-0.01732146553695202,0.009150088764727116,-0.002067678142338991
1701815866922976000,11.31797607421875,-0.018281536176800728,0.002216815249994397,-0.00481472909450531
1701815866932929000,11.327928955078125,-0.019573701545596123,0.0006468818173743784,-0.012116317637264729
1701815866942882000,11.337882080078124,-0.018022943288087845,-0.0003075950953643769,-0.016990700736641884
1701815866952835000,11.3478349609375,-0.01332699041813612,-0.00021411814668681473,-0.0149238221347332
1701815866962788000,11.3577880859375,-0.013493704609572887,-0.0006290386663749814,-0.011926434002816677
1701815866972741000,11.3677412109375,-0.015112640336155891,0.0029760824982076883,-0.0064975805580616
1701815866982694100,11.377694091796876,-0.017360348254442215,0.00145195540972054,-0.004722050856798887
1701815866992646000,11.38764599609375,-0.01734064146876335,-0.0004340952436905354,0.0006311691831797361
1701815867002599000,11.397598876953126,-0.020313527435064316,-0.006490656174719334,0.006976683158427477
1701815867012552000,11.407552001953125,-0.02147812768816948,-0.013571202754974365,0.01185266487300396
1701815867022505000,11.4175048828125,-0.01793745532631874,-0.021920477971434593,0.008812932297587395
1701815867032458000,11.4274580078125,-0.016089221462607384,-0.013575729914009571,0.007003314793109894
1701815867042411000,11.437410888671875,-0.01287398673593998,-0.010340522043406963,0.00788269005715847
1701815867052364000,11.447364013671875,-0.005117264110594988,-0.0157717727124691,0.010777014307677746
1701815867062317000,11.457317138671876,-0.0003502056933939457,-0.014361628331243992,0.0038802255876362324
1701815867072270000,11.46727001953125,-0.001074052881449461,-0.017662083730101585,0.0007994809420779347
1701815867082222000,11.47722216796875,-0.005178516730666161,-0.018060758709907532,0.004285558592528105
1701815867092175000,11.487175048828124,-0.0073591130785644054,-0.014876417815685272,0.0038045919500291348
1701815867102128000,11.497128173828125,-0.006331399083137512,-0.013865748420357704,0.005057609174400568
1701815867112081000,11.507080810546874,-0.002831739140674472,-0.012783173471689224,0.006789728999137878
1701815867122034000,11.517033935546875,0.0007949535502120852,-0.012534167617559433,0.004062652122229338
1701815867131987000,11.526987060546874,0.005816343706101179,-0.008044344373047352,-0.0015520902816206217
1701815867141940000,11.53693994140625,0.008762066252529621,-0.0005848301807418466,-0.005797435529530048
1701815867151893000,11.54689306640625,0.011758921667933464,0.0035870117135345936,-0.014515825547277927
1701815867161846000,11.556845947265625,0.021893847733736038,0.009091499261558056,-0.025674469769001007
1701815867171798000,11.566798095703126,0.02847212180495262,0.008593222126364708,-0.03642165660858154
1701815867181751000,11.5767509765625,0.03412840887904167,0.015618108212947845,-0.04361538961529732
1701815867191704000,11.5867041015625,0.03419152647256851,0.01624741218984127,-0.032704152166843414
1701815867201656800,11.59665673828125,0.027344539761543274,0.013858024962246418,-0.014944061636924744
1701815867211609900,11.60660986328125,0.021620873361825943,0.0027680895291268826,-0.0016381103778257966
1701815867221563000,11.61656298828125,0.01537842396646738,-0.005196892656385899,-0.0005406216951087117
1701815867231516000,11.626515869140626,0.008992429822683334,-0.009288839064538479,-0.00512711750343442
1701815867241469000,11.636468994140625,0.004436559975147247,-0.009548231028020382,-0.010975153185427189
1701815867251422000,11.646421875,0.0059873186983168125,-0.005710882600396872,-0.01570013351738453
1701815867261374000,11.6563740234375,0.014786136336624622,0.0006340986583381891,-0.021508486941456795
1701815867271327000,11.666326904296875,0.02401505410671234,0.008244614116847515,-0.021448301151394844
1701815867281279700,11.67627978515625,0.02918052300810814,0.011713114567101002,-0.019751068204641342
1701815867291232800,11.686232666015625,0.033535588532686234,0.01161297969520092,-0.02124643325805664
1701815867301185800,11.696185791015624,0.02875974215567112,0.008358864113688469,-0.019333483651280403
1701815867311138800,11.706138916015625,0.01919153705239296,0.0018407768802717328,-0.01859419047832489
1701815867321091800,11.716091796875,0.014422615058720112,-0.002389388158917427,-0.01335575245320797
1701815867331044900,11.726044921875,0.008594021201133728,-0.007790811359882355,-0.009708819910883904
1701815867340998000,11.735997802734374,0.004486361052840948,-0.011482219211757183,-0.004493285436183214
1701815867350950000,11.745949951171875,0.002409095410257578,-0.009467803873121738,-0.0013920343481004238
1701815867360903000,11.75590283203125,-0.00044128578156232834,-0.002907639369368553,0.0006820355774834752
1701815867370856000,11.76585595703125,-0.0025425199419260025,0.0020359866321086884,-0.004494616761803627
1701815867380808700,11.77580859375,0.0011518171522766352,0.0026903252582997084,-0.010630273260176182
1701815867390761700,11.78576171875,0.006573214195668697,0.0035662390291690826,-0.011514975689351559
1701815867400714800,11.79571484375,0.007833688519895077,-0.002493784064427018,-0.008977515622973442
1701815867410667800,11.805667724609375,0.010377272963523865,-0.006105563137680292,-0.008507467806339264
1701815867420620800,11.815620849609376,0.011509116739034653,-0.006461095064878464,-0.006386792752891779
1701815867430573800,11.82557373046875,0.00842597521841526,-0.010039584711194038,-0.002891926560550928
1701815867440526000,11.835526123046876,0.0005547364708036184,-0.014217019081115723,0.0027025758754462004
1701815867450479000,11.84547900390625,-0.006048304960131645,-0.021157482638955116,0.011114702560007572
1701815867460432000,11.855431884765625,-0.011539743281900883,-0.022910375148057938,0.019174760207533836
1701815867470385000,11.865385009765625,-0.013305951841175556,-0.026644660159945488,0.019267437979578972
1701815867480338000,11.875337890625,-0.008015315979719162,-0.02256256714463234,0.009240902960300446
1701815867490291000,11.885291015625,0.0019315907265990973,-0.012793559581041336,-0.006485329940915108
1701815867500244000,11.895243896484375,0.010617224499583244,-0.004649080336093903,-0.017065269872546196
1701815867510197000,11.905197021484375,0.02010153979063034,0.0020535634830594063,-0.021146297454833984
1701815867520150000,11.91514990234375,0.024959944188594818,0.000517718493938446,-0.013057212345302105
