time,seconds_elapsed,z,y,x
1701815855626455600,0.02145556640625,0.000047051114961504936,0.010463890619575977,0.002938969526439905
1701815855636408600,0.03140869140625,0.005488954018801451,0.009675594978034496,0.0011647716164588928
1701815855646361600,0.041361572265625,0.0047684041783213615,0.008215440437197685,-0.003335080109536648
1701815855656314600,0.051314697265625,0.0018019089475274086,0.012363579124212265,-0.005838717799633741
1701815855666267600,0.061267578125,-0.0005475531797856092,0.014466805383563042,-0.00899636559188366
1701815855676220700,0.071220703125,-0.003718579187989235,0.014380518347024918,-0.009373735636472702
1701815855686173400,0.08117333984375,-0.0040862467139959335,0.016702577471733093,-0.00720845814794302
1701815855696125400,0.09112548828125,-0.009608311578631401,0.016953978687524796,-0.008973068557679653
1701815855706078500,0.101078369140625,-0.013161782175302505,0.013538484461605549,-0.007857768796384335
1701815855716031500,0.111031494140625,-0.015806300565600395,0.01580989360809326,-0.006650824099779129
1701815855725984500,0.120984619140625,-0.018213100731372833,0.011417485773563385,-0.010068554431200027
1701815855735937500,0.1309375,-0.02077239751815796,0.011437725275754929,-0.011200131848454475
1701815855745890600,0.140890625,-0.023453552275896072,0.015071123838424683,-0.014672499150037766
1701815855755843600,0.150843505859375,-0.02572016790509224,0.014948086813092232,-0.018590541556477547
1701815855765795600,0.160795654296875,-0.02510770410299301,0.015693727880716324,-0.019573457539081573
1701815855775748600,0.17074853515625,-0.024890124797821045,0.017972594127058983,-0.018197668716311455
1701815855785701600,0.18070166015625,-0.025127630680799484,0.01646902784705162,-0.016196392476558685
1701815855795654700,0.190654541015625,-0.024004841223359108,0.014732644893229008,-0.011391250416636467
1701815855805607700,0.200607666015625,-0.028158867731690407,0.014737151563167572,-0.004993383772671223
1701815855815560700,0.210560791015625,-0.030728552490472794,0.01640455611050129,0.001796612050384283
1701815855825513700,0.220513671875,-0.03576459735631943,0.013462413102388382,0.0063808080740273
1701815855835466500,0.230466552734375,-0.04169066622853279,0.010088987648487091,0.009203226305544376
1701815855845418500,0.24041845703125,-0.043304044753313065,0.0109621062874794,0.010440027341246605
1701815855855371500,0.25037158203125,-0.04639650508761406,0.010576214641332626,0.006643159314990044
1701815855865324500,0.260324462890625,-0.046562694013118744,0.009068984538316727,-0.0025039073079824448
1701815855875277600,0.270277587890625,-0.045591969043016434,0.009855149313807487,-0.0033675706945359707
1701815855885230600,0.280230712890625,-0.04350964352488518,0.0073656258173286915,-0.0018354537896811962
1701815855895183600,0.29018359375,-0.04474854841828346,0.0042683701030910015,0.004630701150745153
1701815855905136600,0.30013671875,-0.0437961183488369,-0.00008214497938752174,0.008411349728703499
1701815855915089700,0.310089599609375,-0.04472183436155319,-0.0015514108818024397,0.013639401644468307
1701815855925041400,0.32004150390625,-0.045818861573934555,0.00239882105961442,0.01561574824154377
1701815855934994400,0.329994384765625,-0.0474199540913105,0.005703804083168507,0.013762986287474632
1701815855944947500,0.339947509765625,-0.04507465660572052,0.007787431124597788,0.01142933964729309
1701815855954900500,0.349900390625,-0.03996485099196434,0.012155814096331596,0.005948287900537252
1701815855964853500,0.359853515625,-0.035862185060977936,0.02049524150788784,-0.004229353275150061
1701815855974806500,0.369806640625,-0.02771024778485298,0.02246704511344433,-0.013577846810221672
1701815855984759600,0.379759521484375,-0.018512273207306862,0.022114813327789307,-0.024054504930973053
1701815855994712600,0.389712646484375,-0.00851183757185936,0.026501039043068886,-0.03251004219055176
1701815856004664600,0.39966455078125,-0.003190093208104372,0.03333188593387604,-0.03906545788049698
1701815856014617300,0.409617431640625,0.006958681158721447,0.04212617501616478,-0.048247504979372025
1701815856024570400,0.4195703125,0.011931033805012703,0.050865355879068375,-0.053073469549417496
1701815856034523400,0.4295234375,0.01816469430923462,0.058343783020973206,-0.052524860948324203
1701815856044476400,0.439476318359375,0.020097926259040833,0.06405319273471832,-0.044692810624837875
1701815856054429400,0.449429443359375,0.021722186356782913,0.06732062995433807,-0.038373664021492004
1701815856064382500,0.459382568359375,0.020919490605592728,0.0676983892917633,-0.03506435453891754
1701815856074334700,0.469334716796875,0.020050233229994774,0.07086248695850372,-0.03435355797410011
1701815856084287500,0.47928759765625,0.014737033285200596,0.07153763622045517,-0.03745855391025543
1701815856094240500,0.489240478515625,0.013464574702084064,0.06457746773958206,-0.04128311946988106
1701815856104193500,0.499193603515625,0.014694222249090672,0.05369194969534874,-0.043186403810977936
1701815856114146600,0.509146484375,0.013914181850850582,0.04847615212202072,-0.04340984299778938
1701815856124099600,0.519099609375,0.014431540854275227,0.03853146731853485,-0.049419719725847244
1701815856134052600,0.529052490234375,0.015311981551349163,0.031073015183210373,-0.05638734623789787
1701815856144005600,0.539005615234375,0.021808279678225517,0.025029931217432022,-0.05578276142477989
1701815856153957400,0.548957275390625,0.024034149944782257,0.02948726713657379,-0.053149159997701645
1701815856163910400,0.558910400390625,0.02462533488869667,0.0349271334707737,-0.050352584570646286
1701815856173863400,0.568863525390625,0.025687670335173607,0.04031257703900337,-0.04593386873602867
1701815856183816400,0.57881640625,0.025778021663427353,0.046015508472919464,-0.04350747913122177
1701815856193769500,0.58876953125,0.020849309861660004,0.0514688603579998,-0.041901592165231705
1701815856203722500,0.598722412109375,0.011934121139347553,0.056075479835271835,-0.040471311658620834
1701815856213675500,0.608675537109375,0.0005797338671982288,0.05706670880317688,-0.037644363939762115
1701815856223628500,0.618628662109375,-0.013437116518616676,0.05656730756163597,-0.036174122244119644
1701815856233580300,0.628580322265625,-0.023549139499664307,0.050697434693574905,-0.034374091774225235
1701815856243533300,0.638533203125,-0.029984228312969208,0.04578559100627899,-0.03625580668449402
1701815856253486300,0.648486328125,-0.03221968561410904,0.044970929622650146,-0.04141887649893761
1701815856263439400,0.658439453125,-0.029654018580913544,0.04641902074217796,-0.04440395161509514
1701815856273392400,0.668392333984375,-0.029058270156383514,0.04596814885735512,-0.04319727420806885
1701815856283345400,0.678345458984375,-0.028014088049530983,0.047078937292099,-0.04219047725200653
1701815856293298400,0.68829833984375,-0.02463000826537609,0.047353245317935944,-0.03970201686024666
1701815856303251500,0.69825146484375,-0.020086579024791718,0.057985562831163406,-0.04165501520037651
1701815856313203500,0.708203369140625,-0.021788340061903,0.05236682668328285,-0.028267040848731995
1701815856323156500,0.718156494140625,-0.013699447736144066,0.046568095684051514,-0.01683676801621914
1701815856333109500,0.728109619140625,-0.00147926714271307,0.044104937463998795,-0.008794289082288742
1701815856343062500,0.7380625,0.006514161825180054,0.04553515836596489,0.0002508221659809351
1701815856353015300,0.748015380859375,0.01560326386243105,0.052968841046094894,0.008356952108442783
1701815856362968300,0.75796826171875,0.022331058979034424,0.055916208773851395,0.012247951701283455
1701815856372921300,0.76792138671875,0.02176167443394661,0.06185106188058853,0.014368893578648567
1701815856382874400,0.777874267578125,0.01952267624437809,0.06746109575033188,0.01581669971346855
1701815856392826600,0.78782666015625,0.014053608290851116,0.0665377825498581,0.007047176361083984
1701815856402779600,0.797779541015625,0.007525557652115822,0.0598759800195694,-0.004194776061922312
1701815856412732400,0.807732421875,0.005096488632261753,0.05212431773543358,-0.012562962248921394
1701815856422685400,0.817685546875,0.0038972627371549606,0.048115845769643784,-0.016185568645596504
1701815856432638500,0.827638427734375,0.0036679646000266075,0.050703372806310654,-0.017047898843884468
1701815856442591500,0.837591552734375,0.00784851424396038,0.05600154772400856,-0.015477588400244713
1701815856452544500,0.84754443359375,0.012314103543758392,0.06526482105255127,-0.015745501965284348
1701815856462496500,0.85749658203125,0.015769267454743385,0.07049619406461716,-0.014204003848135471
1701815856472450600,0.867450439453125,0.022551806643605232,0.07314178347587585,-0.015184580348432064
1701815856482403600,0.877403564453125,0.0225058626383543,0.07048375904560089,-0.019588179886341095
1701815856492356600,0.887356689453125,0.023538103327155113,0.0700608491897583,-0.02413179725408554
1701815856502309600,0.8973095703125,0.02344510890543461,0.06560681760311127,-0.028591839596629143
1701815856512262400,0.907262451171875,0.024094654247164726,0.06443209946155548,-0.03289657458662987
1701815856522214400,0.91721435546875,0.021095596253871918,0.06285999715328217,-0.03673630207777023
1701815856532167400,0.92716748046875,0.018107261508703232,0.06099604815244675,-0.038134463131427765
1701815856542120400,0.937120361328125,0.016307786107063293,0.056527405977249146,-0.039625365287065506
1701815856552073500,0.947073486328125,0.014473135583102703,0.06212510168552399,-0.03861549124121666
1701815856562026500,0.957026611328125,0.01078821998089552,0.05374445766210556,-0.036197517067193985
1701815856571979500,0.9669794921875,0.010224162600934505,0.05007036030292511,-0.03633973002433777
1701815856581932500,0.9769326171875,0.013166588731110096,0.044546641409397125,-0.033244431018829346
1701815856591885600,0.986885498046875,0.014630529098212719,0.039793964475393295,-0.030970891937613487
1701815856601837300,0.99683740234375,0.01310880295932293,0.04121916741132736,-0.03011956810951233
1701815856611790300,1.006790283203125,0.012256592512130737,0.04422535002231598,-0.024868080392479897
1701815856621743400,1.016743408203125,0.009475131519138813,0.04484875127673149,-0.020421091467142105
1701815856631696400,1.0266962890625,0.0034020587336272,0.04000339284539223,-0.012775689363479614
1701815856641649400,1.0366494140625,0.0002797739580273628,0.03503674641251564,-0.008434029296040535
1701815856651602400,1.0466025390625,-0.0029168182518333197,0.027384687215089798,-0.005598295014351606
1701815856661555500,1.056555419921875,-0.005748627707362175,0.020295463502407074,-0.0050979554653167725
1701815856671508500,1.066508544921875,-0.007260237820446491,0.014993377029895782,-0.0055112773552536964
1701815856681460500,1.07646044921875,-0.008627929724752903,0.014342517592012882,-0.006607663817703724
1701815856691413500,1.08641357421875,-0.00438365014269948,0.014104965142905712,-0.004532262682914734
1701815856701366500,1.096366455078125,-0.0031447901856154203,0.017666930332779884,-0.001775235403329134
1701815856711319600,1.106319580078125,0.0007910954300314188,0.022549569606781006,-0.00229215482249856
1701815856721272600,1.1162724609375,0.0010161150712519884,0.025797834619879723,-0.0070483204908668995
1701815856731225600,1.1262255859375,-0.0016172188334167004,0.029194962233304977,-0.00806005485355854
1701815856741178600,1.1361787109375,-0.00039458810351789,0.030858352780342102,-0.014134839177131653
1701815856751131600,1.146131591796875,-0.006499351933598518,0.029181092977523804,-0.01785021461546421
1701815856761083400,1.15608349609375,-0.008804678916931152,0.02865733951330185,-0.01988212764263153
1701815856771036400,1.166036376953125,-0.013206885196268559,0.02716144546866417,-0.01933032087981701
1701815856780989400,1.175989501953125,-0.012186144478619099,0.02681080996990204,-0.01638943888247013
1701815856790942500,1.1859423828125,-0.011327275075018406,0.02729896828532219,-0.014133209362626076
1701815856800895500,1.1958955078125,-0.008080177940428257,0.025675062090158463,-0.014117149636149406
1701815856810848500,1.2058486328125,-0.006536343600600958,0.026889998465776443,-0.012112854048609734
1701815856820801500,1.215801513671875,-0.0047582341358065605,0.025126652792096138,-0.014396049082279205
1701815856830754600,1.225754638671875,-0.0024258375633507967,0.024223309010267258,-0.018732473254203796
1701815856840707600,1.23570751953125,-0.005173492711037397,0.026660865172743797,-0.025008730590343475
1701815856850659300,1.245659423828125,-0.0029574765358120203,0.024002764374017715,-0.027706246823072433
1701815856860612400,1.2556123046875,0.0010388738010078669,0.021276742219924927,-0.027362655848264694
1701815856870565400,1.2655654296875,0.00032994034700095654,0.020350495353341103,-0.02137959748506546
1701815856880518400,1.275518310546875,0.0023729840759187937,0.02125418558716774,-0.014003513380885124
1701815856890471400,1.285471435546875,0.00010104128159582615,0.024654509499669075,-0.0070931436493992805
1701815856900424400,1.295424560546875,-0.002362116239964962,0.026624184101819992,-0.001841123215854168
1701815856910377500,1.30537744140625,-0.004745112732052803,0.02667265385389328,0.0020034159533679485
1701815856920329500,1.31532958984375,-0.007730710785835981,0.027815449982881546,-0.0007196813821792603
1701815856930282200,1.3252822265625,-0.00978400744497776,0.027030885219573975,-0.006054791621863842
1701815856940235300,1.3352353515625,-0.005986039061099291,0.02429758384823799,-0.01566505990922451
1701815856950188300,1.345188232421875,-0.0019974226597696543,0.019082050770521164,-0.021336527541279793
1701815856960141300,1.355141357421875,-0.0000026782508939504623,0.02364497445523739,-0.013969454914331436
1701815856970094300,1.36509423828125,0.0010023987852036953,0.016422215849161148,-0.011246640235185623
1701815856980047400,1.37504736328125,0.003062641015276313,0.016562703996896744,-0.006713999435305595
1701815856990000400,1.38500048828125,-0.00031051901169121265,0.018250348046422005,-0.003621803130954504
1701815856999952600,1.39495263671875,-0.002843421185389161,0.01815316639840603,-0.002857636660337448
1701815857009905700,1.40490576171875,-0.0030764478724449873,0.013757351785898209,-0.005596431437879801
1701815857019858400,1.4148583984375,-0.0033151055686175823,0.008884435519576073,-0.013056712225079536
1701815857029811500,1.4248115234375,-0.0023829990532249212,0.006600241642445326,-0.013813048601150513
1701815857039764500,1.434764404296875,-0.002034108154475689,0.005937905516475439,-0.011883027851581573
1701815857049717500,1.444717529296875,-0.0016088015399873257,0.012049859389662743,-0.01041482761502266
1701815857059670500,1.45467041015625,-0.0051021091639995575,0.018250325694680214,-0.0065210238099098206
1701815857069623600,1.46462353515625,-0.010246271267533302,0.021574217826128006,-0.0022048386745154858
1701815857079575600,1.474575439453125,-0.012325707823038101,0.01971212401986122,-0.00034902989864349365
1701815857089527800,1.48452783203125,-0.014257032424211502,0.015594343654811382,0.00412561371922493
1701815857099480800,1.494480712890625,-0.013702532276511192,0.013484342023730278,0.004481251817196608
1701815857109433900,1.504433837890625,-0.012539530172944069,0.011415332555770874,-0.0053913528099656105
1701815857119387000,1.514386962890625,-0.010416379198431969,0.009111616760492325,-0.014188149943947792
1701815857129339600,1.524339599609375,-0.008044302463531494,0.006703585851937532,-0.021326221525669098
1701815857139292700,1.534292724609375,-0.002860782667994499,0.009290536865592003,-0.019180728122591972
1701815857149245700,1.54424560546875,-0.004074651747941971,0.012845057994127274,-0.014991309493780136
1701815857159197700,1.55419775390625,-0.0018738869111984968,0.018531937152147293,-0.0100711053237319
1701815857169150700,1.564150634765625,-0.0028073249850422144,0.019861385226249695,-0.005489402450621128
1701815857179103700,1.574103759765625,-0.002948904177173972,0.021676121279597282,-0.0030991239473223686
1701815857189056800,1.584056884765625,-0.004641342908143997,0.021407142281532288,-0.005745773669332266
1701815857199009800,1.594009765625,-0.008020649664103985,0.021527910605072975,-0.010254176333546638
1701815857208962600,1.603962646484375,-0.009569810703396797,0.019901517778635025,-0.014938410371541977
1701815857218915600,1.61391552734375,-0.014057265594601631,0.019781919196248055,-0.019102372229099274
1701815857228868600,1.62386865234375,-0.013737952336668968,0.017995471134781837,-0.01721552014350891
1701815857238820900,1.63382080078125,-0.010907832533121109,0.019138360396027565,-0.010576199740171432
1701815857248774000,1.64377392578125,-0.01130171399563551,0.02458079531788826,-0.008594807237386703
1701815857258727000,1.653726806640625,-0.010085273534059525,0.030033286660909653,-0.006080565508455038
1701815857268680000,1.663679931640625,-0.007195477373898029,0.03310577571392059,-0.0058893500827252865
1701815857278633000,1.673633056640625,-0.006155379116535187,0.03177294135093689,-0.001631296705454588
1701815857288586000,1.6835859375,-0.004883187357336283,0.032960180193185806,-0.003450768068432808
1701815857298538800,1.693538818359375,-0.00045689078979194164,0.025365307927131653,-0.007851345464587212
1701815857308491800,1.70349169921875,0.0008264866191893816,0.023991648107767105,-0.007746417075395584
1701815857318444800,1.71344482421875,0.0020439187064766884,0.019093086943030357,-0.005803548265248537
1701815857328396800,1.723396728515625,0.004393626004457474,0.017344987019896507,-0.005976121407002211
1701815857338349800,1.733349853515625,0.006749119609594345,0.01576942764222622,-0.005585952661931515
1701815857348302800,1.743302734375,0.006326209753751755,0.01631271280348301,-0.0037587573751807213
1701815857358255900,1.753255859375,0.008909648284316063,0.011583030223846436,-0.005505445878952742
1701815857368209000,1.763208984375,0.01087532751262188,0.009004024788737297,0.00007893610745668411
1701815857378162000,1.773161865234375,0.007116491906344891,0.007104762829840183,0.0022357827983796597
1701815857388114700,1.78311474609375,0.0062903789803385735,0.006562809459865093,0.0023843871895223856
1701815857398067700,1.793067626953125,0.0014905971474945545,0.012961450964212418,0.005448065232485533
1701815857408019700,1.803019775390625,-0.003981932532042265,0.015848582610487938,0.005363376811146736
1701815857417972700,1.81297265625,-0.007544268853962421,0.014027605764567852,0.004338399972766638
1701815857427925800,1.82292578125,-0.007479021325707436,0.014728817157447338,0.003246770240366459
1701815857437878800,1.832878662109375,-0.006498947739601135,0.010586291551589966,0.005793391261249781
1701815857447831800,1.842831787109375,-0.0054485974833369255,0.010161517187952995,0.009913833811879158
1701815857457784800,1.852784912109375,-0.007436338812112808,0.009223565459251404,0.013337738811969757
1701815857467737600,1.862737548828125,-0.007866173051297665,0.010815069079399109,0.018748484551906586
1701815857477690600,1.872690673828125,-0.01013784110546112,0.010493243113160133,0.02051352709531784
1701815857487643000,1.882642822265625,-0.014998110011219978,0.015483206138014793,0.021216334775090218
1701815857497596000,1.892595947265625,-0.017815828323364258,0.01694910228252411,0.021227864548563957
1701815857507549000,1.902548828125,-0.016954028978943825,0.018980294466018677,0.02540316805243492
1701815857517502000,1.912501953125,-0.018748342990875244,0.022514881566166878,0.020508181303739548
1701815857527455000,1.922455078125,-0.017931018024683,0.023215292021632195,0.009890692308545113
1701815857537408000,1.932407958984375,-0.01406210195273161,0.021972890943288803,0.0037242393009364605
1701815857547361000,1.942361083984375,-0.01289377361536026,0.021000303328037262,0.005173531360924244
1701815857557313800,1.952313720703125,-0.012989900074899197,0.02679559960961342,0.011055424809455872
1701815857567265800,1.962265869140625,-0.018363893032073975,0.03364258632063866,0.02289583906531334
1701815857577218800,1.97221875,-0.02421417273581028,0.03714699298143387,0.0349891260266304
1701815857587171800,1.982171875,-0.020628226920962334,0.02999906986951828,0.03046867437660694
1701815857597124900,1.992124755859375,-0.005269734654575586,0.00150245800614357,0.008539285510778427
1701815857607078000,2.002077880859375,0.012061052024364471,-0.024108361452817917,-0.03513069823384285
1701815857617031000,2.012031005859375,0.06112483888864517,-0.062341708689928055,-0.06088203936815262
1701815857626984000,2.02198388671875,0.09318903088569641,-0.08158944547176361,-0.056115515530109406
1701815857636937000,2.03193701171875,0.107594333589077,0.0460505448281765,-0.019476011395454407
1701815857646888700,2.041888671875,0.12256529927253723,0.24401023983955383,0.030235882848501205
1701815857656841700,2.051841796875,0.13872672617435455,0.35829874873161316,0.10102072358131409
1701815857666794800,2.061794677734375,0.16408294439315796,0.39381518959999084,0.15876150131225586
1701815857676747800,2.071747802734375,0.19087547063827515,0.3251262903213501,0.17828865349292755
1701815857686700800,2.08170068359375,0.18724903464317322,0.1803928017616272,0.17203181982040405
1701815857696653800,2.09165380859375,0.1583736091852188,-0.22614116966724396,0.003449338721111417
1701815857706606800,2.10160693359375,0.11362291127443314,-0.6697745323181152,-0.41693782806396484
1701815857716560000,2.111559814453125,0.01628044992685318,-0.7229578495025635,-0.7984844446182251
1701815857726511600,2.12151171875,-0.05654475465416908,-0.7417624592781067,-0.9966912865638733
1701815857736464600,2.131464599609375,-0.0481063537299633,-0.8897625803947449,-0.9894538521766663
1701815857746417700,2.141417724609375,-0.02581729367375374,-0.8124054670333862,-0.9344934225082397
1701815857756370700,2.15137060546875,-0.0670108050107956,-0.6713939309120178,-0.7908186912536621
1701815857766323700,2.16132373046875,-0.10610813647508621,-0.5678808093070984,-0.5781927108764648
1701815857776276700,2.17127685546875,-0.11580164730548859,-0.5551096796989441,-0.3179437220096588
1701815857786229800,2.181229736328125,-0.11192487925291061,-0.5279574394226074,-0.0639098659157753
1701815857796182800,2.191182861328125,-0.10343064367771149,-0.47597581148147583,0.1536356657743454
1701815857806134800,2.201134765625,-0.07632871717214584,-0.3869466185569763,0.29823705554008484
1701815857816087800,2.211087890625,-0.038303203880786896,-0.28762009739875793,0.35931527614593506
1701815857826040800,2.221040771484375,-0.01920168288052082,-0.23416993021965027,0.34338346123695374
1701815857835993900,2.230993896484375,-0.010237924754619598,-0.2423068881034851,0.2778979539871216
1701815857845947000,2.24094677734375,-0.006178202573210001,-0.28675878047943115,0.19106720387935638
1701815857855900000,2.25089990234375,-0.01922975853085518,-0.35320717096328735,0.12637297809123993
1701815857865853000,2.26085302734375,-0.045258164405822754,-0.4123935401439667,0.08875875920057297
1701815857875806000,2.270805908203125,-0.08005095273256302,-0.44289371371269226,0.06379177421331406
1701815857885757700,2.2807578125,-0.12385116517543793,-0.44174161553382874,0.05605902150273323
1701815857895710700,2.290710693359375,-0.17867225408554077,-0.3889003396034241,0.08550149202346802
1701815857905663700,2.300663818359375,-0.19498704373836517,-0.2892459034919739,0.13018693029880524
1701815857915616800,2.31061669921875,-0.2139161378145218,-0.25215309858322144,0.2235625833272934
1701815857925569800,2.32056982421875,-0.2521572709083557,-0.262869656085968,0.34970933198928833
1701815857935522800,2.330522705078125,-0.2969183027744293,-0.33266401290893555,0.4810660183429718
1701815857945475800,2.340475830078125,-0.35644155740737915,-0.3829959034919739,0.6176289319992065
1701815857955428900,2.350428955078125,-0.4030221998691559,-0.3640969693660736,0.7649641633033752
1701815857965380900,2.360380859375,-0.450269877910614,-0.3230736255645752,0.9292089939117432
1701815857975333600,2.370333740234375,-0.48240500688552856,-0.30041566491127014,1.0748403072357178
1701815857985286700,2.38028662109375,-0.48500025272369385,-0.31732192635536194,1.1616883277893066
1701815857995239700,2.39023974609375,-0.4810202419757843,-0.3806334137916565,1.1729680299758911
1701815858005192700,2.400192626953125,-0.4771045744419098,-0.4576650857925415,1.1071174144744873
1701815858015145700,2.410145751953125,-0.5007200837135315,-0.5274501442909241,0.990990161895752
1701815858025098800,2.4200986328125,-0.5338804125785828,-0.5845464468002319,0.8453967571258545
1701815858035051800,2.4300517578125,-0.5709311366081238,-0.6377307176589966,0.6887474656105042
1701815858045003800,2.440003662109375,-0.6012004017829895,-0.7044042944908142,0.5034473538398743
1701815858054956800,2.449956787109375,-0.6302213668823242,-0.771942675113678,0.33009085059165955
1701815858064909800,2.459909912109375,-0.6280511021614075,-0.8161940574645996,0.23449908196926117
1701815858074862600,2.469862548828125,-0.6008121371269226,-0.8622500896453857,0.21987055242061615
1701815858084816600,2.479816650390625,-0.5807729363441467,-0.8875402808189392,0.2612113356590271
1701815858094769700,2.489769775390625,-0.5830360651016235,-0.8175005316734314,0.3419821560382843
1701815858104722700,2.49972265625,-0.5999959111213684,-0.6602491140365601,0.4294680655002594
1701815858114675700,2.50967578125,-0.6092341542243958,-0.43780168890953064,0.5030052065849304
1701815858124627700,2.519627685546875,-0.6224163174629211,-0.19620315730571747,0.57192063331604
1701815858134580700,2.529580810546875,-0.6467028260231018,0.020435355603694916,0.6441262364387512
1701815858144533800,2.53953369140625,-0.6641979813575745,0.21145272254943848,0.6891810297966003
1701815858154486800,2.54948681640625,-0.6654924750328064,0.3876425325870514,0.7041330337524414
1701815858164439600,2.559439453125,-0.6356038451194763,0.5079165101051331,0.7101442813873291
1701815858174392600,2.569392578125,-0.5904010534286499,0.5596696138381958,0.7298417687416077
1701815858184345600,2.579345703125,-0.5407472252845764,0.5551848411560059,0.7511337399482727
1701815858194298600,2.589298583984375,-0.4932859241962433,0.5144325494766235,0.7353118658065796
1701815858204250600,2.599250732421875,-0.46679413318634033,0.4308508038520813,0.6725637912750244
1701815858214203600,2.60920361328125,-0.4598771929740906,0.3195808231830597,0.5725414156913757
1701815858224156700,2.61915673828125,-0.4575634300708771,0.18494099378585815,0.446480929851532
1701815858234109700,2.629109619140625,-0.4548460841178894,0.025662967935204506,0.30047833919525146
1701815858244062700,2.639062744140625,-0.4518801271915436,-0.10576882213354111,0.15727296471595764
1701815858254015700,2.649015625,-0.44856172800064087,-0.17837052047252655,0.043547824025154114
1701815858263968800,2.65896875,-0.4412281811237335,-0.20811617374420166,-0.029444094747304916
1701815858273921800,2.668921875,-0.4230559766292572,-0.1786525994539261,-0.06413109600543976
1701815858283873500,2.67887353515625,-0.390158474445343,-0.10706683993339539,-0.060575515031814575
1701815858293826600,2.68882666015625,-0.3470121920108795,-0.004787801764905453,-0.0175218153744936
1701815858303779600,2.698779541015625,-0.2975847125053406,0.09421122074127197,0.04049434885382652
1701815858313732600,2.708732666015625,-0.24696579575538635,0.17073804140090942,0.07336250692605972
1701815858323685600,2.718685546875,-0.20091946423053741,0.2406606674194336,0.08106197416782379
1701815858333638700,2.728638671875,-0.1625022292137146,0.28228431940078735,0.08527561277151108
1701815858343591700,2.738591796875,-0.10155818611383438,0.32516413927078247,0.06378229707479477
1701815858353544700,2.748544677734375,-0.031054705381393433,0.35595816373825073,0.004915462341159582
1701815858363497700,2.758497802734375,0.046667784452438354,0.4002603590488434,-0.08597423136234283
1701815858373449500,2.768449462890625,0.12492436170578003,0.5155575275421143,-0.1623029112815857
1701815858383402500,2.778402587890625,0.1646595150232315,0.6458132266998291,-0.20689702033996582
1701815858393355500,2.78835546875,0.1662624180316925,0.7598040103912354,-0.23881939053535461
1701815858403308500,2.79830859375,0.17779363691806793,0.8084959387779236,-0.26322272419929504
1701815858413261600,2.808261474609375,0.2456626445055008,0.7870809435844421,-0.2604427933692932
1701815858423214600,2.818214599609375,0.2755126953125,0.6180711388587952,-0.21891452372074127
1701815858433167600,2.828167724609375,0.26867347955703735,0.4646557867527008,-0.20369724929332733
1701815858443120600,2.83812060546875,0.21918344497680664,0.3669723570346832,-0.22459560632705688
1701815858453073000,2.848072998046875,0.153148353099823,0.30508214235305786,-0.3063851296901703
1701815858463025700,2.858025634765625,0.08465903997421265,0.25681474804878235,-0.41393664479255676
1701815858472978700,2.867978759765625,0.007935980334877968,0.22968950867652893,-0.4855336546897888
1701815858482931700,2.877931640625,-0.06630656123161316,0.2094137966632843,-0.4774608016014099
1701815858492884700,2.887884765625,-0.11074072122573853,0.16451695561408997,-0.393013596534729
1701815858502837800,2.897837646484375,-0.12155981361865997,0.12642230093479156,-0.28254514932632446
1701815858512790800,2.907790771484375,-0.11038459837436676,0.09376053512096405,-0.17878443002700806
1701815858522743800,2.917743896484375,-0.08726223558187485,0.05957726761698723,-0.09557051211595535
1701815858532695800,2.92769580078125,-0.06077338010072708,0.01895885542035103,-0.05358967185020447
1701815858542648600,2.937648681640625,-0.027952052652835846,-0.03469478711485863,-0.06042467802762985
1701815858552601600,2.9476015625,0.01324284914880991,-0.09418390691280365,-0.1003766804933548
1701815858562554600,2.9575546875,0.05581587553024292,-0.1695455014705658,-0.13450774550437927
1701815858572507600,2.967507568359375,0.10104264318943024,-0.2553185224533081,-0.15560060739517212
1701815858582460700,2.977460693359375,0.14528119564056396,-0.3500216007232666,-0.16308996081352234
1701815858592413700,2.98741357421875,0.18180632591247559,-0.4517854154109955,-0.16404661536216736
1701815858602366700,2.99736669921875,0.20740410685539246,-0.5500051975250244,-0.16635477542877197
1701815858612318700,3.007318603515625,0.2202189564704895,-0.6157609224319458,-0.16812381148338318
1701815858622271700,3.017271728515625,0.21552087366580963,-0.6276007890701294,-0.15166282653808594
1701815858632224500,3.027224609375,0.1858716607093811,-0.591716468334198,-0.11727908253669739
1701815858642177500,3.037177490234375,0.1502116620540619,-0.5041761994361877,-0.06418763101100922
1701815858652130600,3.047130615234375,0.11283858120441437,-0.3973100185394287,0.007728664670139551
1701815858662083600,3.05708349609375,0.07856210321187973,-0.2835583984851837,0.09127575904130936
1701815858672036600,3.06703662109375,0.04589223116636276,-0.18664735555648804,0.17009443044662476
1701815858681989600,3.07698974609375,0.018697096034884453,-0.11135605722665787,0.22396644949913025
1701815858691941600,3.086941650390625,-0.00019998312927782536,-0.06294567137956619,0.24928775429725647
1701815858701894700,3.096894775390625,-0.013551474548876286,-0.057064082473516464,0.2452770322561264
1701815858711847700,3.10684765625,-0.015885792672634125,-0.08015026897192001,0.21529442071914673
1701815858721800400,3.116800537109375,-0.015157417394220829,-0.11316095292568207,0.1621590405702591
1701815858731753500,3.12675341796875,-0.010307779535651207,-0.15849927067756653,0.1133514791727066
1701815858741706500,3.13670654296875,-0.0011182765010744333,-0.19737741351127625,0.0794323980808258
1701815858751659500,3.146659423828125,0.003143969224765897,-0.21835015714168549,0.07381076365709305
1701815858761612500,3.156612548828125,0.009163778275251389,-0.23429183661937714,0.0933208093047142
1701815858771564800,3.166564697265625,0.014979107305407524,-0.23690636456012726,0.12495388090610504
1701815858781517800,3.176517822265625,0.018290216103196144,-0.22954724729061127,0.14936043322086334
1701815858791470800,3.186470947265625,0.01801704615354538,-0.21700797975063324,0.16083598136901855
1701815858801423600,3.196423583984375,0.017694540321826935,-0.18708071112632751,0.16582514345645905
1701815858811376600,3.206376708984375,0.012740446254611015,-0.161626398563385,0.15859262645244598
1701815858821329700,3.21632958984375,0.01204243116080761,-0.15630221366882324,0.14344137907028198
1701815858831282700,3.22628271484375,0.010787148028612137,-0.16921819746494293,0.12251818925142288
1701815858841235700,3.236235595703125,0.009691523388028145,-0.18952825665473938,0.1057482585310936
1701815858851187700,3.246187744140625,0.013425612822175026,-0.2173343002796173,0.09681786596775055
1701815858861140700,3.256140625,0.01995701529085636,-0.2517963945865631,0.08912666141986847
1701815858871093800,3.26609375,0.02780912257730961,-0.2801204323768616,0.08264840394258499
1701815858881046800,3.276046875,0.03426462411880493,-0.29989174008369446,0.07786190509796143
1701815858890999600,3.28599951171875,0.03967198729515076,-0.3089769184589386,0.07680690288543701
1701815858900952600,3.29595263671875,0.02934025414288044,-0.28815871477127075,0.07577706128358841
1701815858910905600,3.305905517578125,0.015214418061077595,-0.23950715363025665,0.0711042508482933
1701815858920858600,3.315858642578125,0.004372423514723778,-0.16426458954811096,0.06472092121839523
1701815858930810600,3.325810546875,-0.009631725959479809,-0.0812680572271347,0.06298921257257462
1701815858940763600,3.335763671875,-0.024270057678222656,-0.015566540881991386,0.064204141497612
1701815858950716700,3.345716552734375,-0.03690274432301521,0.026420997455716133,0.06469836831092834
1701815858960669700,3.355669677734375,-0.0569041483104229,0.0674336776137352,0.06308235973119736
1701815858970622700,3.365622802734375,-0.07948044687509537,0.11671445518732071,0.05486398562788963
1701815858980575500,3.375575439453125,-0.09115467965602875,0.1664535105228424,0.04599485918879509
1701815858990528500,3.385528564453125,-0.09708062559366226,0.2049849033355713,0.0454857274889946
1701815859000481500,3.3954814453125,-0.08875345438718796,0.23069000244140625,0.04867805540561676
1701815859010433800,3.405433837890625,-0.0766654685139656,0.23768192529678345,0.05300569161772728
1701815859020386800,3.41538671875,-0.05844944715499878,0.2374020218849182,0.05125359818339348
1701815859030339800,3.42533984375,-0.04213383421301842,0.2412102222442627,0.04191036522388458
1701815859040292900,3.43529296875,-0.03535422682762146,0.24999864399433136,0.026751121506094933
1701815859050246000,3.445245849609375,-0.03238800913095474,0.26706188917160034,-0.00312864501029253
1701815859060198700,3.45519873046875,-0.025159655138850212,0.2774527370929718,-0.03318667784333229
1701815859070151700,3.465151611328125,-0.007383333519101143,0.2756008207798004,-0.056776463985443115
1701815859080104700,3.475104736328125,0.012141098268330097,0.25338152050971985,-0.05898955091834068
1701815859090057700,3.4850576171875,0.02560696192085743,0.221671462059021,-0.04765164852142334
1701815859100009700,3.495009765625,0.03290162608027458,0.1877574324607849,-0.03577181696891785
1701815859109962800,3.504962646484375,0.03553711622953415,0.15696556866168976,-0.027064941823482513
1701815859119915800,3.514915771484375,0.03173678368330002,0.13094675540924072,-0.02692699059844017
1701815859129868800,3.524868896484375,0.023263687267899513,0.10354281216859818,-0.04199106618762016
1701815859139821800,3.53482177734375,0.019196772947907448,0.07678496092557907,-0.06242416426539421
1701815859149774800,3.54477490234375,0.016515536233782768,0.05261509492993355,-0.08319581300020218
1701815859159727900,3.554727783203125,0.019260987639427185,0.03499748557806015,-0.09624716639518738
1701815859169680000,3.564679931640625,0.021246029064059258,0.025789421051740646,-0.08988102525472641
1701815859179633000,3.5746328125,0.023267101496458054,0.02088441327214241,-0.07337874919176102
1701815859189585700,3.584585693359375,0.028396105393767357,0.014446094632148743,-0.042774029076099396
1701815859199538700,3.59453857421875,0.023387230932712555,-0.004695909563452005,-0.010076004080474377
1701815859209491700,3.60449169921875,0.018890872597694397,-0.023403087630867958,0.008643118664622307
1701815859219444700,3.61444482421875,0.010599919594824314,-0.03907259181141853,0.011359009891748428
1701815859229397800,3.624397705078125,0.0019725672900676727,-0.056452661752700806,0.00850875023752451
1701815859239350800,3.634350830078125,-0.008475013077259064,-0.06816311925649643,-0.0011627855710685253
1701815859249303800,3.6443037109375,-0.014299941249191761,-0.07331421226263046,-0.008566806092858315
1701815859259255800,3.654255859375,-0.01758575066924095,-0.07624821364879608,-0.000990112777799368
1701815859269208800,3.664208740234375,-0.021460846066474915,-0.07880762219429016,0.016891486942768097
1701815859279161600,3.67416162109375,-0.027976803481578827,-0.07641956210136414,0.031736746430397034
1701815859289114600,3.684114501953125,-0.04661080613732338,-0.07639354467391968,0.034554436802864075
1701815859299067600,3.694067626953125,-0.06638637185096741,-0.0850064679980278,0.020831432193517685
1701815859309020700,3.704020751953125,-0.08600419759750366,-0.08710645884275436,-0.001726984977722168
1701815859318973700,3.7139736328125,-0.11293035745620728,-0.08215564489364624,-0.017058271914720535
1701815859328926700,3.7239267578125,-0.13659080862998962,-0.08218181878328323,-0.0242609903216362
1701815859338879000,3.73387890625,-0.15410535037517548,-0.07757135480642319,-0.02372649312019348
1701815859348832000,3.74383203125,-0.16387774050235748,-0.0703260526061058,-0.013308814726769924
1701815859358784800,3.75378466796875,-0.16836009919643402,-0.07098998129367828,0.010125670582056046
1701815859368737800,3.76373779296875,-0.1529550850391388,-0.07358337193727493,0.029548756778240204
1701815859378690800,3.77369091796875,-0.13401201367378235,-0.08590848743915558,0.03524206206202507
1701815859388643800,3.783643798828125,-0.11588551104068756,-0.08961430191993713,0.04497048631310463
1701815859398596900,3.793596923828125,-0.08874869346618652,-0.08569546043872833,0.04539525881409645
1701815859408550000,3.8035498046875,-0.05437903106212616,-0.07070119678974152,0.04125863313674927
1701815859418502000,3.813501953125,-0.008059999905526638,-0.053129129111766815,0.025335855782032013
1701815859428455000,3.823454833984375,0.015983160585165024,-0.06288155168294907,0.009015443734824657
1701815859438408000,3.833407958984375,0.054916977882385254,-0.07226573675870895,-0.01574130356311798
1701815859448360700,3.843360595703125,0.06180668622255325,-0.06306298077106476,-0.02404610812664032
1701815859458313700,3.853313720703125,0.0413389578461647,-0.06927213817834854,-0.018888629972934723
1701815859468266800,3.863266845703125,0.011195078492164612,-0.07099085301160812,-0.008167196065187454
1701815859478219800,3.8732197265625,-0.026506494730710983,-0.06875619292259216,-0.0018003769218921661
1701815859488172800,3.8831728515625,-0.059549443423748016,-0.06507362425327301,-0.0018966961652040482
1701815859498124800,3.893124755859375,-0.0815010815858841,-0.05681862682104111,-0.0012772446498274803
1701815859508077800,3.903077880859375,-0.09499508142471313,-0.05416225269436836,0.0038845145609229803
1701815859518030800,3.91303076171875,-0.10484345257282257,-0.0490306057035923,0.012624742463231087
1701815859527983900,3.92298388671875,-0.11694250255823135,-0.061766017228364944,0.028179729357361794
1701815859537936600,3.9329365234375,-0.14450834691524506,-0.09854613244533539,0.04074212536215782
1701815859547889700,3.9428896484375,-0.19602136313915253,-0.14264261722564697,0.06312339007854462
1701815859557842700,3.9528427734375,-0.24669545888900757,-0.16368159651756287,0.09442112594842911
1701815859567795700,3.962795654296875,-0.27411046624183655,-0.15210744738578796,0.12202993780374527
1701815859577747700,3.972747802734375,-0.27762076258659363,-0.1290266215801239,0.13830476999282837
1701815859587700700,3.98270068359375,-0.26284080743789673,-0.15353931486606598,0.1284896582365036
1701815859597653800,3.99265380859375,-0.2489793300628662,-0.17166826128959656,0.1333392709493637
1701815859607606800,4.002606689453125,-0.17685618996620178,-0.16431979835033417,0.12914596498012543
1701815859617559800,4.012559814453125,-0.12478341162204742,-0.1680610030889511,0.13754184544086456
1701815859627512600,4.0225126953125,-0.06936042010784149,-0.1376325637102127,0.16205334663391113
1701815859637465600,4.032465576171875,0.012718471698462963,-0.022640476003289223,0.18557758629322052
1701815859647418600,4.042418701171875,0.07360807061195374,-0.012688558548688889,0.19958381354808807
1701815859657371000,4.052370849609375,0.07712318003177643,0.0066201589070260525,0.19975851476192474
1701815859667324000,4.062323974609375,0.06787745654582977,0.042821817100048065,0.187174454331398
1701815859677277000,4.07227685546875,0.04131694883108139,0.08221769332885742,0.16312317550182343
1701815859687230000,4.08222998046875,-0.00911543145775795,0.11573458462953568,0.13004396855831146
1701815859697183000,4.092182861328125,-0.05220165103673935,0.14287565648555756,0.09386198222637177
1701815859707135700,4.1021357421875,-0.04701053351163864,0.17112015187740326,0.05639190226793289
1701815859717088800,4.1120888671875,-0.01949208974838257,0.17490209639072418,0.02984178625047207
1701815859727041800,4.122041748046875,-0.009497638791799545,0.1561989039182663,0.02434374764561653
1701815859736993800,4.131993896484375,-0.010079273022711277,0.14380668103694916,0.028345413506031036
1701815859746946800,4.14194677734375,-0.02120339684188366,0.12993261218070984,0.027742113918066025
1701815859756899800,4.15189990234375,-0.027507366612553596,0.118803009390831,0.02513168379664421
1701815859766852900,4.161852783203125,-0.0414552204310894,0.10329549759626389,0.03330210968852043
1701815859776806000,4.171805908203125,-0.059774305671453476,0.08361713588237762,0.041997067630290985
1701815859786759000,4.181759033203125,-0.08400186151266098,0.06050796061754227,0.04085531085729599
1701815859796711700,4.191711669921875,-0.10633113235235214,0.04352019354701042,0.03352362662553787
1701815859806664700,4.201664794921875,-0.12578687071800232,0.0227065347135067,0.018837053328752518
1701815859816617700,4.21161767578125,-0.13998019695281982,0.014987362548708916,-0.00882679969072342
1701815859826569700,4.22156982421875,-0.1490992307662964,0.033262308686971664,-0.05109173059463501
1701815859836522800,4.231522705078125,-0.15358959138393402,0.05061573535203934,-0.090422622859478
1701815859846475800,4.241475830078125,-0.14790241420269012,0.06880458444356918,-0.10869989544153214
1701815859856428800,4.2514287109375,-0.13860984146595,0.07608673721551895,-0.10234533250331879
1701815859866381800,4.2613818359375,-0.12178585678339005,0.0798652246594429,-0.08207707852125168
1701815859876334800,4.2713349609375,-0.10811851918697357,0.0924483984708786,-0.06364347785711288
1701815859886287600,4.28128759765625,-0.09264767915010452,0.10437749326229095,-0.05424358323216438
1701815859896240600,4.29124072265625,-0.0828389897942543,0.11443758755922318,-0.057552825659513474
1701815859906193000,4.30119287109375,-0.07439027726650238,0.1134401336312294,-0.07236109673976898
1701815859916146000,4.31114599609375,-0.06546389311552048,0.10512148588895798,-0.08635148406028748
1701815859926099000,4.321098876953125,-0.054159849882125854,0.09893683344125748,-0.09617938846349716
1701815859936052000,4.331052001953125,-0.041406773030757904,0.09559377282857895,-0.09635569155216217
1701815859946005000,4.3410048828125,-0.022981517016887665,0.09729508310556412,-0.0935630276799202
1701815859955958000,4.3509580078125,0.0023030657321214676,0.10099288076162338,-0.09401603043079376
1701815859965910800,4.360910888671875,0.02593688853085041,0.09877865016460419,-0.09596086293458939
1701815859975863800,4.37086376953125,0.03835387900471687,0.09813337028026581,-0.09989780932664871
1701815859985815800,4.38081591796875,0.03356198966503143,0.1020512580871582,-0.1018284261226654
1701815859995768800,4.390768798828125,0.005211842246353626,0.1184704452753067,-0.09614311158657074
1701815860005721900,4.400721923828125,-0.03494387865066528,0.1521218717098236,-0.08135471493005753
1701815860015675000,4.4106748046875,-0.09498457610607147,0.19650690257549286,-0.05510660260915756
1701815860025628000,4.4206279296875,-0.16491112112998962,0.24343396723270416,-0.030253160744905472
1701815860035581000,4.430580810546875,-0.23007147014141083,0.2819637954235077,-0.010583055205643177
1701815860045534000,4.440533935546875,-0.2917065918445587,0.30093908309936523,0.021911388263106346
1701815860055486700,4.45048681640625,-0.3204823136329651,0.30725690722465515,0.04936564713716507
1701815860065438700,4.460438720703125,-0.3124140501022339,0.28645437955856323,0.06022310256958008
1701815860075391700,4.470391845703125,-0.2869398593902588,0.2517611086368561,0.057623326778411865
1701815860085344500,4.480344482421875,-0.24757860600948334,0.20733587443828583,0.04684280604124069
1701815860095297500,4.490297607421875,-0.19142131507396698,0.16659137606620789,0.03654303029179573
1701815860105250600,4.50025048828125,-0.13133607804775238,0.1309598982334137,0.02392176352441311
1701815860115203600,4.51020361328125,-0.0779745876789093,0.09260053932666779,0.0057491520419716835
1701815860125156600,4.520156494140625,-0.025926977396011353,0.05322094261646271,-0.024342522025108337
1701815860135109400,4.530109375,0.014051597565412521,0.019048061221837997,-0.05181089788675308
1701815860145061400,4.540061279296875,0.037776730954647064,-0.0027620960026979446,-0.06849529594182968
1701815860155014400,4.550014404296875,0.04961607977747917,-0.010269546881318092,-0.07256860285997391
1701815860164967400,4.559967529296875,0.055304720997810364,-0.005304537247866392,-0.06346305459737778
1701815860174920400,4.56992041015625,0.05257471278309822,-0.0004977979697287083,-0.04188026115298271
1701815860184873500,4.57987353515625,0.047847598791122437,0.00007489928975701332,-0.012302301824092865
1701815860194826500,4.589826416015625,0.04863030090928078,0.0031684269197285175,0.009295402094721794
1701815860204779500,4.599779541015625,0.04484724625945091,0.008451584726572037,0.012517988681793213
1701815860214732500,4.609732666015625,0.040602702647447586,0.004903188440948725,0.003748731454834342
1701815860224684500,4.6196845703125,0.0365750677883625,-0.0004040384665131569,-0.013060263358056545
1701815860234637600,4.629637451171875,0.03342055529356003,-0.008384999819099903,-0.030428867787122726
1701815860244590600,4.639590576171875,0.0364895835518837,-0.014090396463871002,-0.04307103902101517
1701815860254543600,4.649543701171875,0.03915620595216751,-0.013744452968239784,-0.04950337111949921
1701815860264496600,4.65949658203125,0.04066053032875061,-0.013601881451904774,-0.04796531796455383
1701815860274449700,4.66944970703125,0.04475727304816246,-0.010380255989730358,-0.04321210831403732
1701815860284402700,4.679402587890625,0.04853524640202522,-0.0019436371512711048,-0.04306773096323013
1701815860294355700,4.689355712890625,0.050465505570173264,0.0016955723986029625,-0.045000653713941574
1701815860304308700,4.699308837890625,0.053495071828365326,-0.0022555070463567972,-0.056491538882255554
1701815860314260500,4.709260498046875,0.05322902649641037,-0.006715768948197365,-0.0639963299036026
1701815860324213500,4.719213623046875,0.04983270540833473,-0.009916897863149643,-0.06997828185558319
1701815860334166500,4.72916650390625,0.045326102524995804,-0.012143566273152828,-0.06909650564193726
1701815860344119600,4.73911962890625,0.0380508117377758,-0.012084213085472584,-0.06780113279819489
1701815860354072600,4.749072509765625,0.03460387885570526,-0.010920943692326546,-0.06477417796850204
1701815860364025600,4.759025634765625,0.03352252393960953,-0.016704844310879707,-0.06008022278547287
1701815860373978600,4.768978515625,0.03167722001671791,-0.033366646617650986,-0.0582042932510376
1701815860383930400,4.778930419921875,0.032441478222608566,-0.05327247828245163,-0.061508193612098694
1701815860393883400,4.78888330078125,0.031583938747644424,-0.06128193438053131,-0.06828966736793518
1701815860403836400,4.79883642578125,0.03140620142221451,-0.060307275503873825,-0.07644489407539368
1701815860413789400,4.80878955078125,0.03414047136902809,-0.041831329464912415,-0.0764816403388977
1701815860423742500,4.818742431640625,0.03582959994673729,-0.018014727160334587,-0.06433882564306259
1701815860433695500,4.828695556640625,0.04016070067882538,0.005649589467793703,-0.05303237587213516
1701815860443648500,4.8386484375,0.04589683935046196,0.022338010370731354,-0.041168663650751114
1701815860453601500,4.8486015625,0.04962419718503952,0.030231352895498276,-0.02996315248310566
1701815860463554600,4.858554443359375,0.05074892193078995,0.02908942475914955,-0.020441565662622452
1701815860473506600,4.868506591796875,0.0457906499505043,0.01932334527373314,-0.019386155530810356
1701815860483459600,4.87845947265625,0.039523761719465256,0.009093232452869415,-0.025841843336820602
1701815860493412600,4.88841259765625,0.03901829570531845,-0.013208877295255661,-0.031275756657123566
1701815860503365600,4.89836572265625,0.0413079597055912,-0.044531311839818954,-0.027093559503555298
1701815860513318700,4.908318603515625,0.04654133692383766,-0.07218104600906372,-0.02842354029417038
1701815860523271700,4.918271728515625,0.04971190169453621,-0.08418041467666626,-0.029561258852481842
1701815860533224700,4.928224609375,0.050715647637844086,-0.08418041467666626,-0.030371922999620438
1701815860543176700,4.9381767578125,0.0540366992354393,-0.08020787686109543,-0.0257657952606678
1701815860553129500,4.94812939453125,0.054608747363090515,-0.07170999050140381,-0.016097187995910645
1701815860563082500,4.95808251953125,0.05135141313076019,-0.062405046075582504,-0.009356935508549213
1701815860573035500,4.968035400390625,0.048179324716329575,-0.04998859018087387,-0.012629694305360317
1701815860582988500,4.977988525390625,0.04432310909032822,-0.04362255707383156,-0.011321133002638817
1701815860592941600,4.987941650390625,0.03846335411071777,-0.043309103697538376,-0.010998092591762543
1701815860602894600,4.99789453125,0.035003263503313065,-0.04067022353410721,-0.00833479966968298
1701815860612847600,5.00784765625,0.02583985961973667,-0.03955675661563873,-0.00960273016244173
1701815860622800600,5.017800537109375,0.0209641233086586,-0.043280262500047684,-0.00924181193113327
1701815860632752600,5.027752685546875,0.016345135867595673,-0.04615754261612892,-0.00798080489039421
1701815860642705400,5.037705322265625,0.01782214641571045,-0.04984587803483009,-0.0034755957312881947
1701815860652658400,5.047658447265625,0.022728487849235535,-0.04801575466990471,-0.0007381322793662548
1701815860662611500,5.057611572265625,0.024524932727217674,-0.04071356728672981,-0.0018441728316247463
1701815860672564500,5.067564453125,0.029223015531897545,-0.03487138822674751,-0.0045384932309389114
1701815860682517500,5.077517578125,0.0272695142775774,-0.028113918378949165,-0.007119613699615002
1701815860692470500,5.087470458984375,0.02347610704600811,-0.028071042150259018,-0.00337787251919508
1701815860702423600,5.097423583984375,0.019411558285355568,-0.026691921055316925,-0.006296671461313963
1701815860712375600,5.10737548828125,0.01738063059747219,-0.022667085751891136,-0.010379830375313759
1701815860722328600,5.11732861328125,0.018484177067875862,-0.02009786106646061,-0.01494619995355606
1701815860732281300,5.12728125,0.02165919728577137,-0.011548048816621304,-0.022676290944218636
1701815860742234400,5.137234375,0.022536084055900574,-0.00010861456394195557,-0.030078738927841187
1701815860752187400,5.1471875,0.02258295565843582,0.00985506922006607,-0.0384724922478199
1701815860762140400,5.157140380859375,0.021236902102828026,0.013548433780670166,-0.039164040237665176
1701815860772093400,5.167093505859375,0.021418528631329536,0.007805593777447939,-0.030412625521421432
1701815860782046500,5.17704638671875,0.019606860354542732,-0.0017088986933231354,-0.013327762484550476
1701815860791999500,5.18699951171875,0.016786839812994003,-0.008253084495663643,-0.0013485969975590706
1701815860801951700,5.19695166015625,0.010344184003770351,-0.012681502848863602,0.005435089580714703
1701815860811904500,5.206904541015625,0.00639578141272068,-0.006698977667838335,0.0022321059368550777
1701815860821857500,5.216857421875,0.002976641058921814,0.004086999222636223,-0.0067452178336679935
1701815860831810600,5.226810546875,0.0043529630638659,0.013021105900406837,-0.011690175160765648
1701815860841763600,5.236763671875,0.00714785885065794,0.01516104768961668,-0.01467417273670435
1701815860851716600,5.246716552734375,0.014842263422906399,0.008217654190957546,-0.014429162256419659
1701815860861669600,5.256669677734375,0.022659337148070335,-0.006504357792437077,-0.014184772968292236
1701815860871622700,5.26662255859375,0.02901044487953186,-0.019769029691815376,-0.009796416386961937
1701815860881574700,5.27657470703125,0.030978528782725334,-0.030600490048527718,-0.007095007225871086
1701815860891527700,5.286527587890625,0.029661597684025764,-0.0313352569937706,-0.007642553187906742
1701815860901480400,5.29648046875,0.024164453148841858,-0.023110289126634598,-0.0056544882245361805
1701815860911433500,5.30643359375,0.021926598623394966,-0.012394528836011887,-0.006505901459604502
1701815860921386500,5.316386474609375,0.02258387766778469,0.0011549857445061207,-0.002777048386633396
1701815860931339500,5.326339599609375,0.019357724115252495,0.005212843883782625,0.002499205991625786
1701815860941292500,5.33629248046875,0.016112273558974266,0.0001507773995399475,0.0037215673364698887
1701815860951245600,5.34624560546875,0.014222761616110802,-0.002867382951080799,0.002544450107961893
1701815860961197600,5.356197509765625,0.013102570548653603,-0.0026210853829979897,-0.002661433070898056
1701815860971150600,5.366150634765625,0.009988270699977875,-0.011177822016179562,-0.004815131425857544
1701815860981103600,5.376103515625,0.006415612064301968,-0.018891796469688416,-0.010284188203513622
1701815860991056400,5.386056396484375,0.008521373383700848,-0.022572819143533707,-0.014830737374722958
1701815861001009400,5.396009521484375,0.009448707103729248,-0.02465527132153511,-0.013206002302467823
1701815861010962400,5.40596240234375,0.0074651846662163734,-0.02393834851682186,-0.010776134207844734
1701815861020915500,5.41591552734375,0.0032458221539855003,-0.025797707960009575,-0.006892158649861813
1701815861030868500,5.425868408203125,-0.006529843434691429,-0.022349180653691292,-0.0003186780959367752
1701815861040821500,5.435821533203125,-0.006007246673107147,-0.0056776078417897224,-0.005685071926563978
1701815861050773500,5.4457734375,0.0074648866429924965,-0.0016114935278892517,-0.028077464550733566
1701815861060726500,5.4557265625,0.024658890441060066,0.0027233911678195,-0.06254134327173233
1701815861070679600,5.465679443359375,0.054846085608005524,0.006940240506082773,-0.08712151646614075
1701815861080632600,5.475632568359375,0.07703442871570587,0.010084472596645355,-0.1001683920621872
1701815861090585300,5.48558544921875,0.09367332607507706,0.00939045287668705,-0.11221493035554886
1701815861100538400,5.495538330078125,0.10800410062074661,0.019746167585253716,-0.1166209876537323
1701815861110491400,5.505491455078125,0.1130039244890213,0.026970526203513145,-0.12159896641969681
1701815861120444200,5.515444091796875,0.10771395266056061,0.0321698933839798,-0.12857359647750854
1701815861130396200,5.525396240234375,0.10399457812309265,0.0451275035738945,-0.13824966549873352
1701815861140349200,5.53534912109375,0.10233037173748016,0.0512264110147953,-0.14469584822654724
1701815861150302200,5.54530224609375,0.09631934762001038,0.061280108988285065,-0.14337784051895142
1701815861160255200,5.555255126953125,0.08410277962684631,0.061377909034490585,-0.1291102021932602
1701815861170208300,5.565208251953125,0.06477808952331543,0.056024421006441116,-0.11352884024381638
1701815861180161300,5.575161376953125,0.04893254488706589,0.05993447080254555,-0.09922819584608078
1701815861190114300,5.5851142578125,0.03739413246512413,0.06475026160478592,-0.08066649734973907
1701815861200067300,5.5950673828125,0.023924045264720917,0.06921646744012833,-0.07004409283399582
1701815861210020000,5.60502001953125,0.02683780901134014,0.06957945972681046,-0.0677092969417572
1701815861219972000,5.61497216796875,0.033979181200265884,0.06788068264722824,-0.07963404804468155
1701815861229925000,5.624925048828125,0.0437505841255188,0.05921795219182968,-0.09189631044864655
1701815861239878100,5.634878173828125,0.05687292665243149,0.051697418093681335,-0.1046501025557518
1701815861249831200,5.6448310546875,0.06554444134235382,0.04827791824936867,-0.10114964842796326
1701815861259784200,5.6547841796875,0.06537733972072601,0.039340950548648834,-0.09370774030685425
1701815861269737200,5.6647373046875,0.06561169773340225,0.031823646277189255,-0.08262792229652405
1701815861279690200,5.674690185546875,0.06146018207073212,0.030733905732631683,-0.06940475851297379
1701815861289643300,5.684643310546875,0.057465169578790665,0.02873227372765541,-0.05802827328443527
1701815861299596000,5.694595947265625,0.0510663241147995,0.023498062044382095,-0.0520116426050663
1701815861309548000,5.704548095703125,0.04640898481011391,0.02592979557812214,-0.04732075333595276
1701815861319501000,5.7145009765625,0.0427393838763237,0.029525574296712875,-0.04268242046236992
1701815861329454000,5.7244541015625,0.037476442754268646,0.029452603310346603,-0.0367097482085228
1701815861339407000,5.734406982421875,0.03855425864458084,0.033789318054914474,-0.030695170164108276
1701815861349360000,5.744360107421875,0.04193061590194702,0.03837741166353226,-0.030144162476062775
1701815861359313200,5.754313232421875,0.04511801898479462,0.031941693276166916,-0.03278582915663719
1701815861369266200,5.76426611328125,0.04502827301621437,0.02263554558157921,-0.036539554595947266
1701815861379219000,5.774218994140625,0.045173730701208115,0.008545986376702785,-0.03562524542212486
1701815861389171200,5.784171142578125,0.04160403087735176,-0.0056012580171227455,-0.033235058188438416
1701815861399124200,5.794124267578125,0.032258350402116776,-0.01820327527821064,-0.03020356595516205
1701815861409077200,5.8040771484375,0.016488708555698395,-0.02596106380224228,-0.025529716163873672
1701815861419030300,5.8140302734375,0.007046171464025974,-0.022876346483826637,-0.01752168871462345
1701815861428983300,5.8239833984375,0.0015512711834162474,-0.017277583479881287,-0.0025105150416493416
1701815861438936300,5.833936279296875,-0.0016959980130195618,-0.018233949318528175,0.012644962407648563
1701815861448889300,5.843889404296875,-0.00256472104229033,-0.023828983306884766,0.014533676207065582
1701815861458842400,5.85384228515625,-0.0003923748154193163,-0.034313857555389404,0.012957138940691948
1701815861468795100,5.863795166015625,-0.005939206574112177,-0.05359914153814316,0.0065868571400642395
1701815861478747100,5.8737470703125,-0.005414492916315794,-0.06657934933900833,0.0019204523414373398
1701815861488700200,5.8837001953125,-0.0065636467188596725,-0.06510822474956512,-0.0010487060062587261
1701815861498653200,5.893653076171875,-0.007777287159115076,-0.055863071233034134,0.0008987090550363064
1701815861508606200,5.903606201171875,-0.0073740845546126366,-0.042633816599845886,0.010634426958858967
1701815861518559200,5.913559326171875,-0.012300808914005756,-0.02111634612083435,0.018973346799612045
1701815861528512300,5.92351220703125,-0.019073493778705597,-0.002811640966683626,0.025328446179628372
1701815861538465300,5.93346533203125,-0.02227194979786873,0.004934696014970541,0.027269624173641205
1701815861548418300,5.943418212890625,-0.0244488175958395,0.005122715141624212,0.02603977546095848
1701815861558370000,5.9533701171875,-0.02396492101252079,0.0017439625225961208,0.02212546393275261
1701815861568323000,5.963322998046875,-0.019736088812351227,-0.0055962419137358665,0.013298415578901768
1701815861578276000,5.973276123046875,-0.016172584146261215,-0.012031272985041142,0.009021659381687641
1701815861588229000,5.98322900390625,-0.014372553676366806,-0.016071822494268417,0.009393969550728798
1701815861598182100,5.99318212890625,-0.016481881961226463,-0.017232216894626617,0.01869497448205948
1701815861608135200,6.00313525390625,-0.020450789481401443,-0.017347533255815506,0.026784591376781464
1701815861618088200,6.013088134765625,-0.025292128324508667,-0.009634453803300858,0.03170670196413994
1701815861628041200,6.023041259765625,-0.02500210888683796,-0.0074312202632427216,0.03209392726421356
1701815861637994000,6.032993896484375,-0.020767569541931152,-0.0049546994268894196,0.027038047090172768
1701815861647946200,6.0429462890625,-0.016396790742874146,-0.006741413846611977,0.01796518824994564
1701815861657899300,6.052899169921875,-0.011462382972240448,-0.011250621639192104,0.008586423471570015
1701815861667852300,6.062852294921875,-0.009497502818703651,-0.013854660093784332,0.005619129166007042
1701815861677805300,6.072805419921875,-0.01077158935368061,-0.01305280439555645,0.006489612627774477
1701815861687758000,6.082758056640625,-0.014632374048233032,-0.008215971291065216,0.0077141341753304005
1701815861697711000,6.092711181640625,-0.016041668131947517,-0.004044766537845135,0.014753712341189384
1701815861707664100,6.1026640625,-0.02001883275806904,0.0011856816709041595,0.023412715643644333
1701815861717617200,6.1126171875,-0.01939365826547146,0.004112948663532734,0.02792898193001747
1701815861727570200,6.122570068359375,-0.02192525938153267,0.005990210920572281,0.027597416192293167
1701815861737522200,6.132522216796875,-0.021749738603830338,0.004235326778143644,0.02237090840935707
1701815861747475200,6.14247509765625,-0.022328708320856094,0.0031895036809146404,0.01809387095272541
1701815861757428200,6.15242822265625,-0.015572633594274521,0.002614363096654415,0.014012333005666733
1701815861767381200,6.16238134765625,-0.01253077108412981,0.0067984554916620255,0.008093191310763359
1701815861777334300,6.172334228515625,-0.006326416507363319,0.010507822968065739,0.004401622340083122
1701815861787287300,6.182287353515625,0.0032926551066339016,0.01394223514944315,0.002278550062328577
1701815861797240300,6.192240234375,0.006424090825021267,0.011416135355830193,0.0068961335346102715
1701815861807193300,6.202193359375,0.007679237984120846,0.006460258737206459,0.0057922531850636005
1701815861817145000,6.21214501953125,0.004117714241147041,-0.00021604448556900024,0.006161866709589958
1701815861827098000,6.22209814453125,0.001038566930219531,-0.0033721569925546646,0.0034161473158746958
1701815861837051100,6.232051025390625,-0.005528040695935488,-0.006870380602777004,-0.00044920947402715683
1701815861847004200,6.242004150390625,-0.004395131953060627,-0.009815303608775139,-0.005058342590928078
1701815861856957200,6.251957275390625,-0.0039922078140079975,-0.007281721569597721,-0.004787392448633909
1701815861866910200,6.26191015625,-0.001907218829728663,-0.0050278883427381516,0.0019557317718863487
1701815861876863200,6.27186328125,-0.0031609514262527227,-0.004754464142024517,0.003974020015448332
1701815861886816300,6.281816162109375,-0.0008317506872117519,-0.0008300298359245062,0.006275789812207222
1701815861896769300,6.291769287109375,-0.0009327162988483906,0.0010237740352749825,0.0042815133929252625
1701815861906721000,6.301720947265625,-0.0024906655307859182,0.0002890080213546753,0.0014377902261912823
1701815861916674000,6.311674072265625,-0.0010107664857059717,-0.0017444551922380924,-0.0025880527682602406
1701815861926627000,6.321626953125,-0.0029881636146456003,-0.002554855076596141,-0.004902605898678303
1701815861936580000,6.331580078125,-0.005717986263334751,0.00012116087600588799,-0.005733861122280359
1701815861946533000,6.341533203125,-0.006471394561231136,0.004464510828256607,-0.009945116937160492
1701815861956486100,6.351486083984375,-0.003415133338421583,0.006373071111738682,-0.013917009346187115
1701815861966439200,6.361439208984375,-0.000510157085955143,0.008398138917982578,-0.017867274582386017
1701815861976392200,6.37139208984375,-0.0007605215068906546,0.0037787663750350475,-0.016685687005519867
1701815861986345000,6.381344970703125,0.000007534166797995567,-0.0028330637142062187,-0.015607374720275402
1701815861996297200,6.391297119140625,0.0008392841555178165,-0.006570541299879551,-0.011377004906535149
1701815862006250200,6.401250244140625,-0.006323553621768951,-0.008681628853082657,-0.007948717102408409
1701815862016203300,6.411203369140625,-0.008186206221580505,-0.007361511699855328,-0.006594921462237835
1701815862026156300,6.42115625,-0.011039516888558865,-0.002760901115834713,-0.0058742705732584
1701815862036109300,6.431109375,-0.012382244691252708,0.0037209782749414444,-0.004561443347483873
1701815862046062300,6.441062255859375,-0.009569147601723671,0.004317526705563068,-0.003381929360330105
1701815862056015400,6.451015380859375,-0.003243128303438425,-0.001484598033130169,-0.005502910818904638
1701815862065968400,6.460968505859375,0.003911986947059631,-0.008292702957987785,-0.009962374344468117
1701815862075920100,6.470920166015625,0.009820893406867981,-0.012845413759350777,-0.014145328663289547
1701815862085873400,6.480873291015625,0.012040372006595135,-0.012407323345541954,-0.020474862307310104
1701815862095826400,6.490826416015625,0.011999288573861122,-0.012700039893388748,-0.024233367294073105
1701815862105779500,6.500779541015625,0.011150537990033627,-0.010890955105423927,-0.02884223312139511
1701815862115732500,6.510732421875,0.007646252401173115,-0.012181855738162994,-0.031045233830809593
1701815862125685500,6.520685546875,0.007559966295957565,-0.009640933945775032,-0.03251689672470093
1701815862135638500,6.530638427734375,0.001776698511093855,-0.01124559249728918,-0.03141430765390396
1701815862145591600,6.540591552734375,-0.0006470442749559879,-0.009937714785337448,-0.026564957574009895
1701815862155543300,6.550543212890625,0.00006574136205017567,-0.000918989535421133,-0.023289240896701813
1701815862165496300,6.560496337890625,0.000019668834283947945,0.004668322391808033,-0.023786453530192375
1701815862175449300,6.570449462890625,0.005050331819802523,0.011649529449641705,-0.019745036959648132
1701815862185402400,6.58040234375,0.009871186688542366,0.011825031600892544,-0.013177415356040001
1701815862195355400,6.59035546875,0.012437507510185242,0.008970821276307106,-0.0070468466728925705
1701815862205308400,6.600308349609375,0.01441490463912487,0.005463704466819763,-0.005889436230063438
1701815862215261400,6.610261474609375,0.013724932447075844,0.0014238501898944378,-0.0026706974022090435
1701815862225214500,6.62021435546875,0.010493719018995762,-0.0035565271973609924,0.0009149827528744936
1701815862235167500,6.63016748046875,0.008598119020462036,-0.0057927705347537994,0.010625287890434265
1701815862245119200,6.640119140625,0.0064657265320420265,-0.007715572603046894,0.019833434373140335
1701815862255072300,6.650072265625,0.0013225951697677374,-0.007554474752396345,0.021745221689343452
1701815862265025300,6.660025390625,0.00035906326957046986,-0.008090835064649582,0.025417454540729523
1701815862274978300,6.669978271484375,-0.0009418379049748182,-0.015220488421618938,0.03848882392048836
1701815862284931300,6.679931396484375,-0.00039961840957403183,-0.02193085476756096,0.046478040516376495
1701815862294884400,6.68988427734375,0.00018790201283991337,-0.02439291402697563,0.04973273724317551
1701815862304837400,6.69983740234375,-0.00041530397720634937,-0.02684355527162552,0.05478661507368088
1701815862314790400,6.709790283203125,0.0011451949831098318,-0.027352800592780113,0.05742434412240982
1701815862324742400,6.719742431640625,0.0015406745951622725,-0.025308558717370033,0.06335680186748505
1701815862334695400,6.7296953125,0.0013853509444743395,-0.025432705879211426,0.06906641274690628
1701815862344648400,6.7396484375,-0.0003121478948742151,-0.023303242400288582,0.06773483008146286
1701815862354601500,6.7496015625,-0.0009643363300710917,-0.019231928512454033,0.06612595915794373
1701815862364554500,6.759554443359375,0.002781399991363287,-0.018023651093244553,0.06315813213586807
1701815862374507500,6.769507568359375,0.004015643149614334,-0.019360478967428207,0.05924028158187866
1701815862384460500,6.77946044921875,0.007577887736260891,-0.0200467761605978,0.057682063430547714
1701815862394413600,6.78941357421875,0.006052469369024038,-0.018962323665618896,0.061610106378793716
1701815862404366600,6.79936669921875,0.005091334227472544,-0.018117303028702736,0.06396673619747162
1701815862414318300,6.809318359375,0.0039036411326378584,-0.017212603241205215,0.06759001314640045
1701815862424271400,6.819271240234375,0.0038418557960540056,-0.021195359528064728,0.0672437995672226
1701815862434224400,6.829224365234375,0.014844115823507309,-0.024208080023527145,0.06145718693733215
1701815862444177400,6.839177490234375,0.025281842797994614,-0.03025318682193756,0.05649012327194214
1701815862454130400,6.84913037109375,0.03607242554426193,-0.03244432061910629,0.04605623707175255
1701815862464083500,6.85908349609375,0.04624570161104202,-0.03002883307635784,0.035322099924087524
1701815862474036500,6.869036376953125,0.051152314990758896,-0.022666100412607193,0.024642933160066605
1701815862483989500,6.878989501953125,0.05285034701228142,-0.016165589913725853,0.013500267639756203
1701815862493942500,6.888942626953125,0.05220536142587662,-0.011543819680809975,0.008139637298882008
1701815862503894300,6.898894287109375,0.05071931704878807,-0.005675810854882002,0.003787765745073557
1701815862513847300,6.908847412109375,0.05388346314430237,-0.0010856811422854662,-0.000494880136102438
1701815862523800300,6.91880029296875,0.05299396812915802,-0.0025208587758243084,-0.001842705998569727
1701815862533753300,6.92875341796875,0.05647436901926994,-0.0027719123754650354,-0.007474633399397135
1701815862543706400,6.938706298828125,0.059081342071294785,-0.002184152603149414,-0.012579645961523056
1701815862553659400,6.948659423828125,0.06007586419582367,-0.005392139311879873,-0.01908646523952484
1701815862563612400,6.9586123046875,0.060415953397750854,-0.006796424277126789,-0.020324569195508957
1701815862573565400,6.9685654296875,0.0575004480779171,-0.004432405345141888,-0.02321460284292698
1701815862583518500,6.9785185546875,0.05425352230668068,0.0018574483692646027,-0.028783272951841354
1701815862593470200,6.98847021484375,0.04907970130443573,0.006451118271797895,-0.03218446299433708
1701815862603423200,6.99842333984375,0.04180021956562996,0.009070336818695068,-0.030924253165721893
1701815862613376300,7.008376220703125,0.03617732599377632,0.011156024411320686,-0.030290726572275162
1701815862623329300,7.018329345703125,0.03442469984292984,0.013319576159119606,-0.02888484299182892
1701815862633282300,7.0282822265625,0.029753997921943665,0.015572715550661087,-0.02876158431172371
1701815862643235300,7.0382353515625,0.02563169039785862,0.022297995164990425,-0.028748270124197006
1701815862653188400,7.048188232421875,0.02355470322072506,0.021390007808804512,-0.027986709028482437
1701815862663141400,7.058141357421875,0.022551223635673523,0.01565542258322239,-0.02216130867600441
1701815862673093400,7.06809326171875,0.016779901459813118,0.0096827307716012,-0.013513393700122833
1701815862683046400,7.07804638671875,0.008142471313476562,0.004344424232840538,-0.007410759571939707
1701815862692999400,7.08799951171875,-0.00316055491566658,-0.004121510311961174,-0.0011801826767623425
1701815862702952400,7.097952392578125,-0.010163336992263794,-0.013683589175343513,0.0051581403240561485
1701815862712905500,7.107905517578125,-0.013811342418193817,-0.016004258766770363,0.00826866365969181
1701815862722858500,7.1178583984375,-0.019985882565379143,-0.011499522253870964,0.006096855737268925
1701815862732811500,7.1278115234375,-0.0204095970839262,-0.0029490701854228973,0.003619747469201684
1701815862742764500,7.1377646484375,-0.019633019343018532,0.002823065035045147,0.0062719895504415035
1701815862752717600,7.147717529296875,-0.020986197516322136,0.008179884403944016,0.00797534640878439
1701815862762669300,7.15766943359375,-0.02239341102540493,0.010287510231137276,0.006851226091384888
1701815862772622300,7.167622314453125,-0.024385344237089157,0.014650613069534302,0.008089201524853706
1701815862782575400,7.177575439453125,-0.024684682488441467,0.014802413061261177,0.00475705461576581
1701815862792528400,7.1875283203125,-0.020794253796339035,0.014177020639181137,0.0005520656704902649
1701815862802481400,7.1974814453125,-0.012991458177566528,0.013395117595791817,-0.002452779095619917
1701815862812434400,7.207434326171875,-0.003919912502169609,0.016854437068104744,-0.010375473648309708
1701815862822387500,7.217387451171875,0.004394743125885725,0.021313367411494255,-0.011989615857601166
1701815862832340500,7.227340576171875,0.01169280894100666,0.027091477066278458,-0.016708560287952423
1701815862842292200,7.237292236328125,0.019311046227812767,0.03113948181271553,-0.022961929440498352
1701815862852245200,7.247245361328125,0.023615093901753426,0.028527500107884407,-0.02431255206465721
1701815862862198300,7.2571982421875,0.024393534287810326,0.023213962092995644,-0.024141311645507812
1701815862872151300,7.2671513671875,0.020534725859761238,0.009236408397555351,-0.021231934428215027
1701815862882104300,7.277104248046875,0.013256040401756763,-0.002017045859247446,-0.017962373793125153
1701815862892057300,7.287057373046875,0.007608930580317974,-0.008892597630620003,-0.016752205789089203
1701815862902010400,7.29701025390625,0.0020367992110550404,-0.012361365370452404,-0.018146902322769165
1701815862911963400,7.30696337890625,0.0006140146870166063,-0.009138338267803192,-0.020692378282546997
1701815862921916400,7.31691650390625,0.003205004381015897,-0.0005467147566378117,-0.02372891455888748
1701815862931868400,7.326868408203125,0.011229446157813072,0.00879728700965643,-0.02285088412463665
1701815862941821400,7.336821533203125,0.020144112408161163,0.012698018923401833,-0.020116351544857025
1701815862951774500,7.3467744140625,0.02677147090435028,0.017098011448979378,-0.01937238872051239
1701815862961727500,7.3567275390625,0.035353776067495346,0.018208017572760582,-0.021405179053544998
1701815862971680500,7.366680419921875,0.03733444958925247,0.01555675733834505,-0.026319097727537155
1701815862981633500,7.376633544921875,0.02969171293079853,0.00984214711934328,-0.021540585905313492
1701815862991586600,7.386586669921875,0.018587369471788406,0.0029924651607871056,-0.011555913835763931
1701815863001539600,7.39653955078125,0.00913794245570898,-0.0065022362396121025,-0.004797610454261303
1701815863011491600,7.40649169921875,0.011148038320243359,-0.01712387427687645,-0.004883460234850645
1701815863021444400,7.4164443359375,0.017666656523942947,-0.024847840890288353,-0.0059226262383162975
1701815863031397400,7.4263974609375,0.02098936028778553,-0.01791289821267128,-0.01044550072401762
1701815863041350400,7.436350341796875,0.01640605926513672,-0.0058972486294806,-0.012544604018330574
1701815863051303400,7.446303466796875,0.010735442861914635,0.0009586880914866924,-0.008967403322458267
1701815863061256400,7.45625634765625,0.005702334456145763,0.006654124241322279,-0.0003827037289738655
1701815863071209500,7.46620947265625,0.005937829613685608,0.007653643377125263,0.007811029441654682
1701815863081162500,7.47616259765625,0.00845371838659048,0.002442902885377407,0.003469544230028987
1701815863091114800,7.48611474609375,0.017010226845741272,-0.0001360895112156868,-0.003939750604331493
1701815863101066800,7.496066650390625,0.021860908716917038,-0.0047710551880300045,-0.009804563596844673
1701815863111019800,7.506019775390625,0.01903558149933815,-0.007962447591125965,-0.012836094945669174
1701815863120972800,7.515972900390625,0.013180886395275593,-0.009801892563700676,-0.009042423218488693
1701815863130925800,7.52592578125,0.005455764941871166,-0.00881430134177208,-0.0034510460682213306
1701815863140878800,7.53587890625,-0.00039306911639869213,-0.0047947922721505165,-0.0012408890761435032
1701815863150831900,7.545831787109375,-0.003195409430190921,0.0023076492361724377,-0.0045473831705749035
1701815863160784600,7.55578466796875,-0.0020752837881445885,0.008490975946187973,-0.00821775197982788
1701815863170737700,7.565737548828125,0.00485116895288229,0.01261813472956419,-0.012074721045792103
1701815863180690700,7.575690673828125,0.010228623636066914,0.015371576882898808,-0.018801864236593246
1701815863190643000,7.585642822265625,0.015693286433815956,0.01825224794447422,-0.023726288229227066
1701815863200596000,7.595595947265625,0.016450155526399612,0.017237316817045212,-0.025289028882980347
1701815863210549000,7.605549072265625,0.010742172598838806,0.01832333207130432,-0.020113280043005943
1701815863220502000,7.615501953125,-0.0020537839736789465,0.018828000873327255,-0.017729219049215317
1701815863230455000,7.625455078125,-0.012925158254802227,0.021921344101428986,-0.016979146748781204
1701815863240408000,7.635407958984375,-0.014932382851839066,0.02405879832804203,-0.016248641535639763
1701815863250360800,7.64536083984375,-0.010047756135463715,0.020172378048300743,-0.017382588237524033
1701815863260313900,7.65531396484375,-0.0006808855105191469,0.012920057401061058,-0.024931319057941437
1701815863270265900,7.665265869140625,0.0065960511565208435,0.008036824874579906,-0.028319410979747772
1701815863280219000,7.675218994140625,0.005925200879573822,0.006362495943903923,-0.027741238474845886
1701815863290172000,7.685171875,0.004570113494992256,0.009874903596937656,-0.02772444486618042
1701815863300125000,7.695125,0.0002009307499974966,0.011652030982077122,-0.021923813968896866
1701815863310078000,7.705077880859375,0.00011131446808576584,0.007219652645289898,-0.016147609800100327
1701815863320031000,7.715031005859375,0.0017832471057772636,0.0035053417086601257,-0.010431135073304176
1701815863329984000,7.72498388671875,0.0006420428398996592,-0.00367401959374547,-0.008859220892190933
1701815863339936800,7.734936767578125,0.0019326105248183012,-0.008181152865290642,-0.013913634233176708
1701815863349889800,7.744889892578125,0.0064595951698720455,-0.008815448731184006,-0.019638393074274063
1701815863359841800,7.754841796875,0.010062584653496742,-0.008678829297423363,-0.019343847408890724
1701815863369794800,7.764794921875,0.01326711568981409,-0.0023955281358212233,-0.016037844121456146
1701815863379747800,7.774747802734375,0.01555450540035963,0.008501061238348484,-0.01034294068813324
1701815863389700900,7.784700927734375,0.014784390106797218,0.019336700439453125,-0.01122419536113739
1701815863399654000,7.79465380859375,0.012584885582327843,0.02448032982647419,-0.013252457603812218
1701815863409607000,7.80460693359375,0.014438249170780182,0.02064354717731476,-0.011964036151766777
1701815863419559700,7.8145595703125,0.01058066077530384,0.008695808239281178,-0.003993726335465908
1701815863429512700,7.8245126953125,0.006070212461054325,-0.005890265107154846,0.007030724082142115
1701815863439465700,7.8344658203125,0.0005689205136150122,-0.016101092100143433,0.012949332594871521
1701815863449417700,7.844417724609375,-0.008079666644334793,-0.020441744476556778,0.013573087751865387
1701815863459370800,7.854370849609375,-0.016438797116279602,-0.01978207938373089,0.013812240213155746
1701815863469323800,7.86432373046875,-0.01804891973733902,-0.01875583454966545,0.015949690714478493
1701815863479276800,7.87427685546875,-0.017521347850561142,-0.020454665645956993,0.014501197263598442
1701815863489229800,7.884229736328125,-0.016407135874032974,-0.019390352070331573,0.017827119678258896
1701815863499182800,7.894182861328125,-0.01631339266896248,-0.020421527326107025,0.01664600893855095
1701815863509135600,7.904135498046875,-0.01695738546550274,-0.021895864978432655,0.016563300043344498
1701815863519088600,7.914088623046875,-0.017362985759973526,-0.020832465961575508,0.00923481397330761
1701815863529041700,7.924041748046875,-0.020340001210570335,-0.012472350150346756,-0.004711548797786236
1701815863538994000,7.933993896484375,-0.02055891416966915,0.002250935882329941,-0.01937997341156006
1701815863548947000,7.943947021484375,-0.021228205412626266,0.018203258514404297,-0.02830358035862446
1701815863558900000,7.95389990234375,-0.02173100970685482,0.03132891654968262,-0.021768180653452873
1701815863568853000,7.96385302734375,-0.023099731653928757,0.038814328610897064,-0.00688327057287097
1701815863578806000,7.973805908203125,-0.027669450268149376,0.04262477904558182,0.007992880418896675
1701815863588759000,7.983759033203125,-0.0277982447296381,0.03885326907038689,0.01220635510981083
1701815863598711800,7.9937119140625,-0.027584392577409744,0.033014554530382156,0.0036709229461848736
1701815863608664800,8.003664794921875,-0.022265855222940445,0.024375908076763153,-0.005492834839969873
1701815863618616800,8.013616943359375,-0.013210575096309185,0.01514512486755848,-0.0176155436784029
1701815863628569900,8.02356982421875,-0.003317577065899968,0.004020363092422485,-0.019837139174342155
1701815863638523000,8.03352294921875,0.003953651525080204,-0.0038508758880198,-0.017469588667154312
1701815863648476000,8.043475830078124,0.007468348369002342,-0.006163901183754206,-0.01190568320453167
1701815863658429000,8.053428955078125,0.012453519739210606,-0.006356181111186743,-0.005194517318159342
1701815863668382000,8.0633818359375,0.011664055287837982,-0.0011826236732304096,-0.0040485248900949955
1701815863678335000,8.0733349609375,0.012807350605726242,0.00585477938875556,-0.00750717194750905
1701815863688287700,8.083287841796874,0.017145372927188873,0.014003360643982887,-0.011068204417824745
1701815863698240800,8.09324072265625,0.019124101847410202,0.01998402178287506,-0.01404988020658493
1701815863708192800,8.10319287109375,0.02070484310388565,0.024034377187490463,-0.01053357869386673
1701815863718145800,8.113145751953125,0.018620120361447334,0.023783240467309952,-0.009544746950268745
1701815863728098800,8.123098876953126,0.011915141716599464,0.019835414364933968,-0.007415073923766613
1701815863738051800,8.1330517578125,0.004618345759809017,0.01250959001481533,-0.005099189467728138
1701815863748004900,8.1430048828125,-0.0011072249617427588,-0.0012665791437029839,-0.001326024066656828
1701815863757958000,8.1529580078125,-0.007615990471094847,-0.009289085865020752,0.00339256483130157
1701815863767910700,8.16291064453125,-0.015254652127623558,-0.017626194283366203,0.013183822855353355
1701815863777863700,8.17286376953125,-0.026075076311826706,-0.020691759884357452,0.02824905887246132
1701815863787816000,8.18281591796875,-0.03722186014056206,-0.025643836706876755,0.04237363860011101
1701815863797768700,8.192768798828125,-0.04578099399805069,-0.027554655447602272,0.05615150183439255
1701815863807721700,8.2027216796875,-0.04783128947019577,-0.027001481503248215,0.050081342458724976
1701815863817674800,8.2126748046875,-0.04464561864733696,-0.02330155111849308,0.03534340858459473
1701815863827627800,8.222627685546875,-0.037248603999614716,-0.013313607312738895,0.02184920758008957
1701815863837580800,8.232580810546875,-0.03270765393972397,-0.003650327678769827,0.013413378968834877
1701815863847533800,8.242533935546875,-0.024805577471852303,0.0009168419055640697,0.006290127523243427
1701815863857486800,8.25248681640625,-0.018565792590379715,0.0035770731046795845,0.0005105352029204369
1701815863867439900,8.26243994140625,-0.018145719543099403,0.006420970894396305,0.00035014073364436626
1701815863877392000,8.272391845703124,-0.020009933039546013,0.005499251186847687,0.0002135206013917923
1701815863887345000,8.282344970703125,-0.02007867582142353,0.008325374685227871,-0.0015639723278582096
1701815863897298000,8.2922978515625,-0.020566832274198532,0.010806376114487648,-0.003329648170620203
1701815863907251000,8.3022509765625,-0.020635774359107018,0.013022948056459427,-0.004856871906667948
1701815863917204000,8.312203857421874,-0.020258137956261635,0.016749508678913116,-0.006498444359749556
1701815863927157000,8.322156982421875,-0.015969067811965942,0.018211213871836662,-0.008804166689515114
1701815863937110000,8.332110107421874,-0.012469407171010971,0.02180115506052971,-0.010933363810181618
1701815863947062800,8.342062744140625,-0.003983326256275177,0.022963332012295723,-0.01848238706588745
1701815863957015800,8.352015869140626,0.0033070771023631096,0.023650160059332848,-0.03038378804922104
1701815863966967800,8.3619677734375,0.010452011600136757,0.021586965769529343,-0.03814418241381645
1701815863976920800,8.3719208984375,0.020789071917533875,0.01940770074725151,-0.03711220622062683
1701815863986873900,8.381873779296875,0.029935553669929504,0.017769254744052887,-0.03547140583395958
1701815863996827000,8.391826904296876,0.03613193333148956,0.018712280318140984,-0.03337336704134941
1701815864006780000,8.40177978515625,0.033826861530542374,0.020104791969060898,-0.030178191140294075
1701815864016733000,8.41173291015625,0.030147172510623932,0.01685280352830887,-0.026501165702939034
1701815864026686000,8.42168603515625,0.018406275659799576,0.008951820433139801,-0.023572629317641258
1701815864036638700,8.431638671875,0.01545602548867464,0.007917981594800949,-0.021938247606158257
1701815864046590700,8.4415908203125,0.01937301643192768,0.010485684499144554,-0.02958216331899166
1701815864056543700,8.451543701171875,0.029150281101465225,0.014741947874426842,-0.029174434021115303
1701815864066496800,8.461496826171874,0.04149956256151199,0.016308533027768135,-0.025657285004854202
1701815864076449800,8.47144970703125,0.04700591415166855,0.01952936127781868,-0.01859911158680916
1701815864086402800,8.48140283203125,0.04711230844259262,0.020694948732852936,-0.011406369507312775
1701815864096355800,8.49135595703125,0.04054734855890274,0.012288679368793964,-0.0012621222995221615
1701815864106308900,8.501308837890624,0.038407210260629654,-0.0002392362803220749,0.0009552831761538982
1701815864116262000,8.511261962890625,0.03523645177483559,-0.01452895998954773,0.005219803191721439
1701815864126215000,8.52121484375,0.035096194595098495,-0.02606773003935814,0.0055070859380066395
1701815864136167000,8.5311669921875,0.04049522057175636,-0.03667084127664566,0.0025392593815922737
1701815864146120000,8.541119873046876,0.0464322604238987,-0.04371979832649231,0.0025845756754279137
1701815864156073000,8.551072998046875,0.04905441030859947,-0.044540852308273315,-0.004374796990305185
1701815864166026000,8.56102587890625,0.05216547101736069,-0.042756009846925735,-0.006645290181040764
1701815864175979000,8.57097900390625,0.04839896410703659,-0.04351607710123062,-0.0014571859501302242
1701815864185932000,8.58093212890625,0.04305858910083771,-0.03822050988674164,0.002236501546576619
1701815864195885000,8.590885009765625,0.033041905611753464,-0.033914174884557724,0.001462586922571063
1701815864205838000,8.600838134765626,0.022949887439608574,-0.031086133792996407,-0.003629600629210472
1701815864215790000,8.6107900390625,0.013195261359214783,-0.029281575232744217,-0.006893571000546217
1701815864225742800,8.620742919921875,0.0038466337136924267,-0.033221375197172165,-0.00938396342098713
1701815864235695900,8.63069580078125,-0.0017971370834857225,-0.030868474394083023,-0.008427889086306095
1701815864245649000,8.64064892578125,-0.008650935254991055,-0.02579590305685997,-0.008253853768110275
1701815864255602000,8.650601806640625,-0.011148447170853615,-0.02008635178208351,-0.006221862509846687
1701815864265555000,8.660554931640625,-0.016482258215546608,-0.014406384900212288,-0.005034462083131075
1701815864275508000,8.670508056640625,-0.018937958404421806,-0.015053533017635345,-0.006646473426371813
1701815864285461000,8.6804609375,-0.02542177587747574,-0.0172196663916111,-0.008940928615629673
1701815864295414000,8.6904140625,-0.03379128873348236,-0.012355934828519821,-0.009894340299069881
1701815864305365800,8.70036572265625,-0.04111780971288681,-0.007800540886819363,-0.008782652206718922
1701815864315318800,8.71031884765625,-0.0475647896528244,-0.0038289683870971203,-0.00585370697081089
1701815864325271800,8.720271728515625,-0.046144649386405945,-0.0027652322314679623,-0.0025719222612679005
1701815864335224800,8.730224853515624,-0.04365645721554756,-0.0022033052518963814,-0.00416449224576354
1701815864345177900,8.740177734375,-0.04050767794251442,-0.0002574031241238117,-0.006439336575567722
1701815864355131000,8.750130859375,-0.04085655137896538,0.0023346515372395515,-0.01281041745096445
1701815864365084000,8.760083984375,-0.04349611699581146,-0.0017773264553397894,-0.015314938500523567
1701815864375037000,8.770036865234376,-0.045623451471328735,-0.0035805527586489916,-0.012625677511096
1701815864384990000,8.779989990234375,-0.05227428302168846,-0.0033357380889356136,-0.008624838665127754
1701815864394941700,8.789941650390626,-0.05932606756687164,-0.0008861625101417303,-0.008370507508516312
1701815864404894700,8.799894775390625,-0.061424996703863144,0.004923881031572819,-0.014133251272141933
1701815864414847700,8.80984765625,-0.0636223703622818,0.011867808178067207,-0.021317128092050552
1701815864424800800,8.81980078125,-0.0639054998755455,0.022257309406995773,-0.027774326503276825
1701815864434753800,8.82975390625,-0.06070597842335701,0.03204016387462616,-0.03886213153600693
1701815864444706800,8.839706787109375,-0.05996819585561752,0.04796978086233139,-0.047520194202661514
1701815864454659800,8.849659912109376,-0.059196677058935165,0.062436871230602264,-0.04874391481280327
1701815864464612900,8.85961279296875,-0.05690603330731392,0.07169272750616074,-0.048215605318546295
1701815864474565000,8.869565185546875,-0.05427189916372299,0.07502274215221405,-0.04432819038629532
1701815864484518000,8.879517822265624,-0.055577512830495834,0.07277361303567886,-0.0402345135807991
1701815864494471000,8.889470947265625,-0.052980128675699234,0.07031791657209396,-0.035720184445381165
1701815864504424000,8.899423828125,-0.055241137742996216,0.06939101964235306,-0.03743111714720726
1701815864514377000,8.909376953125,-0.057471003383398056,0.06413047760725021,-0.03697305545210838
1701815864524330000,8.919330078125,-0.0600513257086277,0.06543317437171936,-0.034961674362421036
1701815864534283000,8.929282958984375,-0.06052030995488167,0.06994937360286713,-0.028812170028686523
1701815864544236000,8.939236083984374,-0.05995873361825943,0.07667899131774902,-0.023396776989102364
1701815864554189000,8.94918896484375,-0.054560236632823944,0.07806702703237534,-0.020883552730083466
1701815864564141000,8.95914111328125,-0.05057625472545624,0.0739007219672203,-0.012576969340443611
1701815864574093800,8.96909375,-0.04632638022303581,0.07214756309986115,-0.00974496454000473
1701815864584046800,8.979046875,-0.047652214765548706,0.0735563337802887,-0.010229267179965973
1701815864594000000,8.988999755859375,-0.04672037437558174,0.07506554573774338,-0.01418539322912693
1701815864603953000,8.998952880859376,-0.048890069127082825,0.08207777887582779,-0.02066320739686489
1701815864613906000,9.008906005859375,-0.04812893643975258,0.09062066674232483,-0.01699124090373516
1701815864623859000,9.01885888671875,-0.04482077807188034,0.09963026642799377,-0.00583173893392086
1701815864633812000,9.02881201171875,-0.041903551667928696,0.10363885760307312,0.002034972421824932
1701815864643764000,9.038763916015625,-0.03936442360281944,0.10303115844726562,0.009129619225859642
1701815864653716700,9.048716796875,-0.035953447222709656,0.10019995272159576,0.013406656682491302
1701815864663669800,9.058669677734375,-0.028836539015173912,0.0916249081492424,0.009451566264033318
1701815864673622800,9.068622802734374,-0.02768445387482643,0.08515795320272446,0.006617163307964802
1701815864683575800,9.078575927734375,-0.01954655721783638,0.08161384612321854,0.0030110166408121586
1701815864693528800,9.08852880859375,-0.011990103870630264,0.07556314021348953,0.001739357365295291
1701815864703481900,9.09848193359375,-0.004092996008694172,0.06453553587198257,0.005581657402217388
1701815864713435000,9.108434814453124,0.004302353132516146,0.04791847616434097,0.013723740354180336
1701815864723388000,9.118387939453125,0.009594596922397614,0.028507918119430542,0.01868211105465889
1701815864733340000,9.12833984375,0.014662059023976326,0.011483928188681602,0.01904723048210144
1701815864743293000,9.13829296875,0.02202710323035717,-0.004201522562652826,0.014750471338629723
1701815864753246000,9.148245849609374,0.030496753752231598,-0.020496604964137077,0.007935176603496075
1701815864763199000,9.158198974609375,0.042035311460494995,-0.027215424925088882,-0.0020519732497632504
1701815864773152000,9.168152099609374,0.055211033672094345,-0.029098546132445335,-0.015551537275314331
1701815864783105000,9.17810498046875,0.0684584304690361,-0.025936296209692955,-0.028331894427537918
1701815864793057800,9.188057861328126,0.08111750334501266,-0.02332879602909088,-0.043294068425893784
1701815864803010800,9.1980107421875,0.09029212594032288,-0.01958277076482773,-0.061452463269233704
1701815864812963800,9.2079638671875,0.09632658213376999,-0.01814892515540123,-0.0675915852189064
1701815864822916000,9.217916015625,0.09575638175010681,-0.017655590549111366,-0.07061123102903366
1701815864832868900,9.227868896484376,0.09407006949186325,-0.011318332515656948,-0.07118700444698334
1701815864842822000,9.23782177734375,0.0898820161819458,-0.013634994626045227,-0.07315365225076675
1701815864852775000,9.24777490234375,0.08708196878433228,-0.01142803207039833,-0.0712718665599823
1701815864862728000,9.25772802734375,0.08731850981712341,-0.02070472575724125,-0.06863076239824295
1701815864872681000,9.267680908203126,0.08895741403102875,-0.03249853476881981,-0.06986300647258759
1701815864882634000,9.277634033203125,0.0932457447052002,-0.04345099255442619,-0.07433436810970306
1701815864892587000,9.2875869140625,0.09431952983140945,-0.053867679089307785,-0.07585795968770981
1701815864902539000,9.2975390625,0.09656056016683578,-0.06370250135660172,-0.08185810595750809
1701815864912492000,9.307491943359375,0.09707880765199661,-0.0674855187535286,-0.08665286749601364
1701815864922444800,9.31744482421875,0.09533877670764923,-0.06995967030525208,-0.08997879177331924
1701815864932397800,9.327397705078125,0.09233260154724121,-0.07365906983613968,-0.08744639158248901
1701815864942350800,9.337350830078124,0.08857274055480957,-0.08045241236686707,-0.08061874657869339
1701815864952303900,9.347303955078125,0.08392366021871567,-0.08360452950000763,-0.08084884285926819
1701815864962257000,9.3572568359375,0.08058694750070572,-0.08333983272314072,-0.08356243371963501
1701815864972210000,9.3672099609375,0.07833098620176315,-0.08281145989894867,-0.08151312917470932
1701815864982163000,9.377162841796874,0.07479874044656754,-0.07718729972839355,-0.07617426663637161
1701815864992116000,9.387115966796875,0.07514841109514236,-0.07516622543334961,-0.06178467720746994
1701815865002067700,9.397067626953126,0.07142767310142517,-0.07739610970020294,-0.04386517032980919
1701815865012020700,9.407020751953125,0.06331488490104675,-0.08338635414838791,-0.024102916941046715
1701815865021973800,9.416973876953126,0.05263634771108627,-0.08783280849456787,-0.005431694909930229
1701815865031926800,9.4269267578125,0.04159621149301529,-0.0831131562590599,0.004270733334124088
1701815865041879800,9.4368798828125,0.02982502244412899,-0.07301221042871475,0.013433721847832203
1701815865051832800,9.446832763671875,0.027023909613490105,-0.06135821342468262,0.018528081476688385
1701815865061785900,9.456785888671876,0.02584732510149479,-0.04693267121911049,0.006991535425186157
1701815865071739000,9.46673876953125,0.03267434239387512,-0.0325489342212677,-0.019321028143167496
1701815865081692000,9.47669189453125,0.04312804341316223,-0.02211625874042511,-0.03838532790541649
1701815865091644200,9.48664404296875,0.05011378228664398,-0.019399568438529968,-0.038905978202819824
1701815865101597200,9.49659716796875,0.05576092377305031,-0.020185641944408417,-0.02701861783862114
1701815865111550200,9.50655029296875,0.05433639883995056,-0.021075401455163956,-0.014117468148469925
1701815865121503200,9.516503173828125,0.05009155347943306,-0.019462348893284798,-0.004169062711298466
1701815865131456300,9.526456298828125,0.039778195321559906,-0.013611117377877235,0.0013998737558722496
1701815865141409300,9.5364091796875,0.030381569638848305,-0.006221076939254999,0.007972008548676968
1701815865151362300,9.5463623046875,0.02065304107964039,-0.0018340516835451126,0.01765473000705242
1701815865161315300,9.5563154296875,0.017221063375473022,-0.002231116406619549,0.020354531705379486
1701815865171268400,9.566268310546874,0.018862903118133545,-0.015614831820130348,0.020395012572407722
1701815865181220000,9.57622021484375,0.024617105722427368,-0.029856260865926743,0.020208394154906273
1701815865191173000,9.586173095703124,0.025692488998174667,-0.03806092590093613,0.028352340683341026
1701815865201126100,9.596126220703125,0.024053364992141724,-0.040964409708976746,0.03636530041694641
1701815865211079200,9.6060791015625,0.019026383757591248,-0.03672918677330017,0.04136112332344055
1701815865221032200,9.6160322265625,0.015580745413899422,-0.028673935681581497,0.04228748381137848
1701815865230985200,9.625985107421876,0.012375099584460258,-0.022475693374872208,0.04675281047821045
1701815865240938200,9.635938232421875,0.011885774321854115,-0.017612561583518982,0.04891606792807579
1701815865250891300,9.645891357421876,0.0163955707103014,-0.01676461100578308,0.04814162105321884
1701815865260844300,9.65584423828125,0.01880693808197975,-0.018717695027589798,0.044448792934417725
1701815865270796000,9.665796142578126,0.0168047733604908,-0.026442725211381912,0.04262106493115425
1701815865280749000,9.6757490234375,0.016638318076729774,-0.035638343542814255,0.033667199313640594
1701815865290702000,9.6857021484375,0.014971180818974972,-0.030720286071300507,0.025605279952287674
1701815865300655000,9.695655029296875,0.015079543925821781,-0.030535226687788963,0.02479376830160618
1701815865310608100,9.705608154296876,0.01173408143222332,-0.02624727226793766,0.0325305201113224
1701815865320561200,9.71556103515625,0.00332495104521513,-0.026150021702051163,0.037172071635723114
1701815865330514200,9.72551416015625,0.0018215966410934925,-0.014899497851729393,0.03780004754662514
1701815865340467200,9.73546728515625,-0.00463683158159256,-0.004436746705323458,0.03673430532217026
1701815865350420200,9.745420166015625,-0.006463227327913046,-0.00096744648180902,0.03855537623167038
1701815865360372000,9.7553720703125,-0.0030987171921879053,0.005077742505818605,0.03550942987203598
1701815865370325000,9.765324951171875,-0.0034467922523617744,0.004329394083470106,0.029276568442583084
1701815865380278000,9.775278076171874,-0.004892129451036453,0.004704621154814959,0.027390634641051292
1701815865390231000,9.78523095703125,-0.006393087096512318,0.007871385663747787,0.018238414078950882
1701815865400184000,9.79518408203125,-0.010774548165500164,0.006790375802665949,0.012443864718079567
1701815865410137000,9.80513720703125,-0.013871271163225174,0.009251669049263,0.007225933484733105
1701815865420090000,9.815090087890624,-0.01981172151863575,0.016329031437635422,0.0019626703578978777
1701815865430043100,9.825043212890625,-0.027966853231191635,0.02161567099392414,-0.0023452588357031345
1701815865439996200,9.83499609375,-0.035480253398418427,0.029641199856996536,-0.0015294607728719711
1701815865449949200,9.84494921875,-0.04192377254366875,0.0348985455930233,0.004812590777873993
1701815865459901200,9.854901123046876,-0.04922609031200409,0.03489086031913757,0.01372617669403553
1701815865469854200,9.864854248046875,-0.052264221012592316,0.036049067974090576,0.015136586502194405
1701815865479807200,9.87480712890625,-0.0566941574215889,0.03715532273054123,0.011267712339758873
1701815865489760300,9.88476025390625,-0.06126733869314194,0.03608845919370651,0.006131540052592754
1701815865499713300,9.89471337890625,-0.06107810139656067,0.04095374047756195,0.001445837551727891
1701815865509666300,9.904666259765625,-0.058770205825567245,0.04811205342411995,-0.0007717767730355263
1701815865519619300,9.914619384765626,-0.05612101033329964,0.049319054931402206,-0.0016977316699922085
1701815865529572400,9.924572265625,-0.04877308011054993,0.04766363650560379,0.0026751786936074495
1701815865539525400,9.934525390625,-0.0443781353533268,0.04306086152791977,0.006666205357760191
1701815865549477000,9.94447705078125,-0.041481949388980865,0.03472542762756348,0.00812588445842266
1701815865559430100,9.95443017578125,-0.04289122670888901,0.02987159602344036,0.013403400778770447
1701815865569383200,9.964383056640624,-0.042927712202072144,0.02234284207224846,0.017721449956297874
1701815865579336200,9.974336181640625,-0.04255325347185135,0.018745316192507744,0.021067921072244644
1701815865589289200,9.984289306640624,-0.041200630366802216,0.015336204320192337,0.024283424019813538
1701815865599242200,9.9942421875,-0.037615273147821426,0.012948252260684967,0.023124370723962784
1701815865609195300,10.0041953125,-0.031701456755399704,0.01284545473754406,0.020246826112270355
1701815865619148300,10.014148193359375,-0.02577080763876438,0.012744404375553131,0.01122946385294199
1701815865629101300,10.024101318359374,-0.014471814036369324,0.012114567682147026,0.007544980384409428
1701815865639053000,10.034052978515625,-0.006721322890371084,0.011167756281793118,0.00019377656280994415
1701815865649006000,10.044006103515626,0.0008433861657977104,0.015620828606188297,-0.004393252544105053
1701815865658959000,10.053958984375,0.0046430956572294235,0.018858792260289192,-0.008118415251374245
1701815865668912000,10.063912109375,0.010460237972438335,0.015311194583773613,-0.008845191448926926
1701815865678865200,10.073865234375,0.016643952578306198,0.008210615254938602,-0.013673266395926476
1701815865688818200,10.083818115234376,0.02038649283349514,0.010884961113333702,-0.02272615022957325
1701815865698771200,10.093771240234375,0.02030215971171856,0.02082405425608158,-0.028458142653107643
1701815865708724200,10.10372412109375,0.02084517851471901,0.02791552059352398,-0.0317322313785553
1701815865718677200,10.11367724609375,0.021002981811761856,0.03526005521416664,-0.03502446040511131
1701815865728629000,10.12362890625,0.02179899998009205,0.03962657228112221,-0.03817977383732796
1701815865738582000,10.13358203125,0.02592814341187477,0.0403643473982811,-0.03932959958910942
1701815865748535000,10.14353515625,0.029076533392071724,0.03828548640012741,-0.03978979215025902
1701815865758488000,10.153488037109375,0.035680197179317474,0.0425158366560936,-0.04991872236132622
1701815865768441000,10.163441162109375,0.04113328456878662,0.04263834282755852,-0.054002147167921066
1701815865778394000,10.17339404296875,0.04150994122028351,0.03350095450878143,-0.05825427547097206
1701815865788347100,10.18334716796875,0.04664051905274391,0.023754317313432693,-0.061348870396614075
1701815865798300200,10.193300048828124,0.046297311782836914,0.01693052425980568,-0.06445620208978653
1701815865808253000,10.2032529296875,0.04086925834417343,0.024983389303088188,-0.058227866888046265
1701815865818205200,10.213205078125,0.03441542387008667,0.029385363683104515,-0.05168955400586128
1701815865828158200,10.223158203125,0.03325481712818146,0.032582491636276245,-0.05340862274169922
1701815865838111200,10.233111328125,0.03090876340866089,0.030902009457349777,-0.04824426397681236
1701815865848064300,10.243064208984375,0.0326845608651638,0.026204992085695267,-0.04383966326713562
1701815865858017300,10.253017333984374,0.032185133546590805,0.02206944115459919,-0.04374626278877258
1701815865867970300,10.26297021484375,0.033810995519161224,0.016982803121209145,-0.04589996114373207
1701815865877923300,10.27292333984375,0.03243029862642288,0.010027389042079449,-0.04615316540002823
1701815865887876400,10.28287646484375,0.03204547241330147,0.00446830689907074,-0.042887330055236816
1701815865897829000,10.2928291015625,0.033929985016584396,-0.0034834740217775106,-0.03567858785390854
1701815865907781000,10.302781005859375,0.035419221967458725,-0.007748792879283428,-0.024866953492164612
1701815865917734100,10.312734130859376,0.030230538919568062,-0.007778623141348362,-0.016007352620363235
1701815865927687200,10.322687255859375,0.022617893293499947,-0.009340034797787666,-0.008446104824543
1701815865937640200,10.33264013671875,0.012158656492829323,-0.008965175598859787,-0.0021830578334629536
1701815865947593200,10.34259326171875,0.003504448104649782,-0.00290648452937603,0.0019230036996304989
1701815865957546200,10.352546142578126,-0.0002474132925271988,-0.00007181568071246147,0.0033909380435943604
1701815865967499300,10.362499267578125,0.0001339514274150133,0.0025498000904917717,0.0004497431218624115
1701815865977452300,10.372452392578126,0.00362044177018106,0.000019856728613376617,-0.0018003322184085846
1701815865987405000,10.382405029296875,0.003063041949644685,-0.0038507815916091204,-0.002159592229872942
1701815865997357000,10.392357177734375,0.002852989826351404,-0.007691291160881519,-0.002866141963750124
1701815866007310000,10.40231005859375,0.003929705824702978,-0.0061168307438492775,-0.004815576132386923
1701815866017263000,10.41226318359375,0.0031738474499434233,-0.008543930947780609,-0.0036835065111517906
1701815866027216100,10.422216064453124,0.006079887971282005,-0.006562539376318455,-0.000680792611092329
1701815866037169200,10.432169189453125,0.008391441777348518,-0.003775576129555702,0.0011269745882600546
1701815866047122200,10.4421220703125,0.009559237398207188,0.0011557992547750473,-0.0010805195197463036
1701815866057075200,10.4520751953125,0.01085675973445177,0.008733058348298073,-0.00551943713799119
1701815866067028200,10.4620283203125,0.016263242810964584,0.014058582484722137,-0.01447378285229206
1701815866076981000,10.47198095703125,0.023683413863182068,0.01335154753178358,-0.026332588866353035
1701815866086934000,10.48193408203125,0.03307904675602913,0.025512073189020157,-0.03267011046409607
1701815866096886300,10.49188623046875,0.029180165380239487,0.023629600182175636,-0.03269743174314499
1701815866106839300,10.50183935546875,0.02432229369878769,0.017117906361818314,-0.020211467519402504
1701815866116792300,10.511792236328125,0.013520456850528717,0.004378246143460274,0.0012216109316796064
1701815866126745000,10.5217451171875,-0.00037165521644055843,-0.01105024479329586,0.026384754106402397
1701815866136698000,10.531697998046875,-0.012337718158960342,-0.020305633544921875,0.04334593564271927
1701815866146651100,10.541651123046876,-0.015680251643061638,-0.023570135235786438,0.04449482634663582
1701815866156604200,10.551604248046875,-0.01471776608377695,-0.021222952753305435,0.032127849757671356
1701815866166557200,10.56155712890625,-0.00977627094835043,-0.020490583032369614,0.012256938964128494
1701815866176510200,10.57151025390625,0.002122695790603757,-0.01797736994922161,-0.00088458601385355
1701815866186462200,10.581462158203125,0.014510921202600002,-0.011007610708475113,-0.0022774189710617065
1701815866196415200,10.591415283203125,0.024438511580228806,-0.004381469450891018,0.0021298741921782494
1701815866206368000,10.601367919921875,0.032742515206336975,0.0034484900534152985,0.006982419639825821
1701815866216321000,10.611321044921874,0.03501179441809654,0.007466134615242481,0.006813575513660908
1701815866226274000,10.621274169921875,0.03486691787838936,0.01212054118514061,0.0002640634775161743
1701815866236227000,10.63122705078125,0.022557096555829048,0.019260790199041367,0.0063889422453939915
1701815866246180000,10.64118017578125,-0.002324817469343543,0.03504827618598938,0.04000469297170639
1701815866256133000,10.651133056640624,-0.04428502544760704,0.0633784830570221,0.11143205314874649
1701815866266086100,10.661086181640625,-0.09322007745504379,0.08859355747699738,0.20885181427001953
1701815866276038100,10.6710380859375,-0.13198672235012054,0.11400258541107178,0.2939186692237854
1701815866285991200,10.6809912109375,-0.16262400150299072,0.11070559173822403,0.34254851937294006
1701815866295944000,10.69094384765625,-0.1825312077999115,0.1022534891963005,0.35978659987449646
1701815866305897000,10.70089697265625,-0.18981948494911194,0.08169708400964737,0.3350740671157837
1701815866315850000,10.71085009765625,-0.18583163619041443,0.05213133990764618,0.27797555923461914
1701815866325803000,10.720802978515625,-0.17139464616775513,0.007471460849046707,0.20348934829235077
1701815866335756000,10.730756103515626,-0.13993999361991882,-0.04020616039633751,0.1355556845664978
1701815866345709000,10.740708984375,-0.10358571261167526,-0.0751819908618927,0.08693940192461014
1701815866355662000,10.750662109375,-0.07414571195840836,-0.09078367799520493,0.05928827077150345
1701815866365614000,10.760614013671875,-0.05464337766170502,-0.07532962411642075,0.04263099655508995
1701815866375567000,10.770567138671876,-0.04685170203447342,-0.04587128385901451,0.037169575691223145
1701815866385519900,10.780519775390625,-0.04376642405986786,-0.022228006273508072,0.03932061046361923
1701815866395473000,10.790472900390625,-0.045216962695121765,-0.011638037860393524,0.03943319618701935
1701815866405426000,10.800426025390625,-0.042812127619981766,-0.012091042473912239,0.03312070295214653
1701815866415379000,10.81037890625,-0.04130043089389801,-0.018720796331763268,0.02059253305196762
1701815866425332000,10.82033203125,-0.036524850875139236,-0.02180260606110096,0.004211429040879011
1701815866435285000,10.830284912109375,-0.032731104642152786,-0.02234586700797081,-0.012088669463992119
1701815866445237200,10.8402373046875,-0.026535259559750557,-0.02097220905125141,-0.02870413102209568
1701815866455190300,10.850190185546875,-0.019173791632056236,-0.016654163599014282,-0.039606258273124695
1701815866465143300,10.860143310546874,-0.008506499230861664,-0.008614878170192242,-0.04865701124072075
1701815866475096000,10.870095947265625,0.002972082234919071,0.003994830884039402,-0.06133026257157326
1701815866485049000,10.880049072265624,0.016940629109740257,0.015967071056365967,-0.07582399249076843
1701815866495002000,10.890002197265625,0.02809654362499714,0.0223223939538002,-0.08466774225234985
1701815866504955100,10.899955078125,0.03713584318757057,0.02471045032143593,-0.08269993215799332
1701815866514908200,10.909908203125,0.04401373863220215,0.020606135949492455,-0.0740136131644249
1701815866524861200,10.919861083984374,0.050486285239458084,0.01666865311563015,-0.06604090332984924
1701815866534814200,10.929814208984375,0.053027067333459854,0.012675439938902855,-0.06579214334487915
1701815866544766200,10.93976611328125,0.04483838006854057,0.010585656389594078,-0.06465071439743042
1701815866554719000,10.949718994140625,0.037383973598480225,0.006997475866228342,-0.06309059262275696
1701815866564672000,10.959672119140626,0.032151930034160614,0.0024088495410978794,-0.05892833322286606
1701815866574625000,10.969625,0.024307945743203163,-0.003599866759032011,-0.04967205598950386
1701815866584578000,10.979578125,0.026682952418923378,-0.006687802262604237,-0.036166634410619736
1701815866594531000,10.989531005859375,0.03312727063894272,-0.007040671072900295,-0.030677858740091324
1701815866604484000,10.999484130859376,0.03834972903132439,-0.005673137493431568,-0.03617488965392113
1701815866614437000,11.00943701171875,0.044433917850255966,-0.005713929422199726,-0.04329957067966461
1701815866624390100,11.01939013671875,0.04962042719125748,-0.006432183552533388,-0.050372928380966187
1701815866634342100,11.029342041015624,0.052883557975292206,-0.00712248682975769,-0.05099014192819595
1701815866644295000,11.039294921875,0.05446920543909073,-0.009919604286551476,-0.04944443702697754
1701815866654248000,11.049248046875,0.056079331785440445,-0.01035889983177185,-0.04696045070886612
1701815866664201000,11.059200927734375,0.05467717722058296,-0.0123357642441988,-0.04379022866487503
1701815866674154000,11.069154052734374,0.049280498176813126,-0.014040881767868996,-0.034953903406858444
1701815866684107000,11.07910693359375,0.036467231810092926,-0.012556968256831169,-0.023095376789569855
1701815866694060000,11.08906005859375,0.019149914383888245,-0.008852291852235794,-0.011150705628097057
1701815866704013000,11.099012939453125,0.008281288668513298,-0.006827757228165865,-0.003910370171070099
1701815866713966000,11.108966064453124,0.00586660485714674,-0.006278623826801777,-0.0014847065322101116
1701815866723918000,11.11891796875,0.011931686662137508,-0.00999852642416954,-0.005160134751349688
1701815866733871000,11.12887109375,0.02173522487282753,-0.010901246219873428,-0.011181740090250969
1701815866743824100,11.13882421875,0.02475764974951744,-0.00789986364543438,-0.02141040936112404
1701815866753777200,11.148777099609376,0.025807160884141922,-0.004563202150166035,-0.025209296494722366
1701815866763730200,11.158730224609375,0.022237461060285568,-0.002572488971054554,-0.027559000998735428
1701815866773683000,11.168682861328126,0.018282493576407433,0.003110327757894993,-0.025531016290187836
1701815866783636000,11.178635986328125,0.01633385755121708,0.002814184408634901,-0.01838761940598488
1701815866793589000,11.188589111328126,0.016197359189391136,0.0031946911476552486,-0.015411836095154285
1701815866803542000,11.1985419921875,0.01664397120475769,0.0044889869168400764,-0.014491180889308453
1701815866813494000,11.208493896484375,0.017745010554790497,0.00429821340367198,-0.01816188544034958
1701815866823447000,11.218447021484375,0.013098594732582569,0.004255336243659258,-0.020047137513756752
1701815866833400000,11.228400146484375,0.008305081166327,0.0008812029846012592,-0.01655486226081848
1701815866843353000,11.23835302734375,0.007435026578605175,-0.002511664293706417,-0.013491963036358356
1701815866853306000,11.24830615234375,0.0053427559323608875,-0.007992889732122421,-0.01384502649307251
1701815866863259100,11.258259033203124,0.0033078351989388466,-0.014948268420994282,-0.018648304045200348
1701815866873212200,11.268212158203125,-0.001565816579386592,-0.013567997142672539,-0.021542824804782867
1701815866883165200,11.278165283203125,-0.00793503224849701,-0.008555928245186806,-0.02054280787706375
1701815866893118200,11.2881181640625,-0.015540986321866512,-0.003582451958209276,-0.011436829343438148
1701815866903070000,11.298070068359374,-0.018595365807414055,0.00003598490729928017,-0.005940064787864685
1701815866913023000,11.30802294921875,-0.02107285149395466,0.004643681924790144,0.002073962241411209
1701815866922976000,11.31797607421875,-0.022032922133803368,-0.0022895915899425745,-0.0006730887107551098
1701815866932929000,11.327928955078125,-0.02332466095685959,-0.0038593155331909657,-0.007974761538207531
1701815866942882000,11.337882080078124,-0.02177390083670616,-0.004813792183995247,-0.012849144637584686
1701815866952835000,11.3478349609375,-0.017077237367630005,-0.00471996795386076,-0.010782402008771896
1701815866962788000,11.3577880859375,-0.017243951559066772,-0.005134888458997011,-0.007785013876855373
1701815866972741000,11.3677412109375,-0.01886281743645668,-0.0015297324862331152,-0.002356173936277628
1701815866982694100,11.377694091796876,-0.021110525354743004,-0.0030538595747202635,-0.0005806442350149155
1701815866992646000,11.38764599609375,-0.02109202742576599,-0.004940501879900694,0.004772809334099293
1701815867002599000,11.397598876953126,-0.024064913392066956,-0.010997062548995018,0.011118323542177677
1701815867012552000,11.407552001953125,-0.025228161364793777,-0.018076948821544647,0.01599404588341713
1701815867022505000,11.4175048828125,-0.02168748900294304,-0.026426222175359726,0.01295431237667799
1701815867032458000,11.4274580078125,-0.01984018087387085,-0.01808192767202854,0.011144870892167091
1701815867042411000,11.437410888671875,-0.016624946147203445,-0.014846719801425934,0.012024246156215668
1701815867052364000,11.447364013671875,-0.00886857882142067,-0.020278144627809525,0.01491864025592804
1701815867062317000,11.457317138671876,-0.004101520869880915,-0.01886799931526184,0.008021852001547813
1701815867072270000,11.46727001953125,-0.00482579693198204,-0.022168664261698723,0.004941192921251059
1701815867082222000,11.47722216796875,-0.008930260315537453,-0.02256733924150467,0.00842727068811655
1701815867092175000,11.487175048828124,-0.01110950205475092,-0.019382337108254433,0.007946038618683815
1701815867102128000,11.497128173828125,-0.010081788524985313,-0.018371667712926865,0.009199055843055248
1701815867112081000,11.507080810546874,-0.006583197042346001,-0.01728961430490017,0.010931383818387985
1701815867122034000,11.517033935546875,-0.0029565044678747654,-0.017040608450770378,0.008204306475818157
1701815867131987000,11.526987060546874,0.002065099775791168,-0.012550681829452515,0.002589521696791053
1701815867141940000,11.53693994140625,0.00501082232221961,-0.0050911670550704,-0.0016558235511183739
1701815867151893000,11.54689306640625,0.008008461445569992,-0.000918942503631115,-0.010374365374445915
1701815867161846000,11.556845947265625,0.018143387511372566,0.004585545044392347,-0.02153300866484642
1701815867171798000,11.566798095703126,0.024721520021557808,0.0040871985256671906,-0.03228016942739487
1701815867181751000,11.5767509765625,0.030377807095646858,0.011112084612250328,-0.03947390243411064
1701815867191704000,11.5867041015625,0.03043949604034424,0.01174069195985794,-0.028562381863594055
1701815867201656800,11.59665673828125,0.023592509329319,0.009351303800940514,-0.010802291333675385
1701815867211609900,11.60660986328125,0.017870057374238968,-0.0017380383796989918,0.0025034183636307716
1701815867221563000,11.61656298828125,0.011627607978880405,-0.009703020565211773,0.0036009070463478565
1701815867231516000,11.626515869140626,0.005240900442004204,-0.013795316219329834,-0.0009854487143456936
1701815867241469000,11.636468994140625,0.0006850308272987604,-0.014054708182811737,-0.006833484396338463
1701815867251422000,11.646421875,0.0022360035218298435,-0.010217254981398582,-0.011558507569134235
1701815867261374000,11.6563740234375,0.011034821160137653,-0.0038722732570022345,-0.017366860061883926
1701815867271327000,11.666326904296875,0.0202636681497097,0.0037382072769105434,-0.01730666123330593
1701815867281279700,11.67627978515625,0.0254291370511055,0.00720670772716403,-0.01560942828655243
1701815867291232800,11.686232666015625,0.02978512831032276,0.0071070254780352116,-0.017104972153902054
1701815867301185800,11.696185791015624,0.025009281933307648,0.0038529098965227604,-0.015192022547125816
1701815867311138800,11.706138916015625,0.015441360883414745,-0.0026650382205843925,-0.014452783390879631
1701815867321091800,11.716091796875,0.010672438889741898,-0.006895203143358231,-0.00921434536576271
1701815867331044900,11.726044921875,0.004843347240239382,-0.012296870350837708,-0.0055673192255198956
1701815867340998000,11.735997802734374,0.0007356870919466019,-0.01598827913403511,-0.00035178475081920624
1701815867350950000,11.745949951171875,-0.0013418630696833134,-0.013974001631140709,0.0027495217509567738
1701815867360903000,11.75590283203125,-0.00419224426150322,-0.007413836661726236,0.004823591560125351
1701815867370856000,11.76585595703125,-0.0062929801642894745,-0.00246996758505702,-0.00035315612331032753
1701815867380808700,11.77580859375,-0.0025986433029174805,-0.0018156289588660002,-0.006488812621682882
1701815867390761700,11.78576171875,0.00282211322337389,-0.000940028578042984,-0.007373391650617123
1701815867400714800,11.79571484375,0.004082587547600269,-0.007000051438808441,-0.004835931584239006
1701815867410667800,11.805667724609375,0.00662645697593689,-0.01061169058084488,-0.0043659391812980175
1701815867420620800,11.815620849609376,0.007758300751447678,-0.010967222973704338,-0.0022452641278505325
1701815867430573800,11.82557373046875,0.0046760826371610165,-0.01454525999724865,0.001249427441507578
1701815867440526000,11.835526123046876,-0.0031951561104506254,-0.018722694367170334,0.00684393011033535
1701815867450479000,11.84547900390625,-0.009799191728234291,-0.025663645938038826,0.01525624468922615
1701815867460432000,11.855431884765625,-0.015290630981326103,-0.027416538447141647,0.02331630326807499
1701815867470385000,11.865385009765625,-0.017056625336408615,-0.03115071915090084,0.023408938199281693
1701815867480338000,11.875337890625,-0.011765990406274796,-0.027068626135587692,0.013382403180003166
1701815867490291000,11.885291015625,-0.0018194392323493958,-0.017299791797995567,-0.002343759872019291
1701815867500244000,11.895243896484375,0.006866194307804108,-0.009155312553048134,-0.01292369980365038
1701815867510197000,11.905197021484375,0.01635136269032955,-0.0024522515013813972,-0.017004890367388725
